"Time (s)","Acceleration x (m/s^2)","Acceleration y (m/s^2)","Acceleration z (m/s^2)"
0.000000000E0,-2.809500098E-1,9.583050728E0,2.047950029E0
1.260033000E-3,-3.330000043E-1,9.628950119E0,2.055000067E0
2.520066000E-3,-2.779500186E-1,9.628950119E0,2.031000137E0
3.780099000E-3,-2.980500162E-1,9.615000725E0,2.059950113E0
1.906404900E-2,-2.779500186E-1,9.619050026E0,2.035950184E0
2.032408200E-2,-2.620500028E-1,9.607050896E0,2.047950029E0
2.158411500E-2,-3.000000119E-1,9.612000465E0,2.011950016E0
2.284414800E-2,-2.880000174E-1,9.639000893E0,2.031000137E0
2.410418100E-2,-3.120000064E-1,9.607050896E0,1.995000124E0
2.536421400E-2,-2.809500098E-1,9.616950035E0,2.050050020E0
2.662424700E-2,-3.019500077E-1,9.640950203E0,2.064000130E0
2.788428000E-2,-3.139500022E-1,9.627000809E0,2.047950029E0
2.915823500E-2,-2.980500162E-1,9.612000465E0,2.032950163E0
4.289482900E-2,-2.710500062E-1,9.628950119E0,2.052000046E0
4.415486200E-2,-2.639999986E-1,9.660000801E0,2.055000067E0
4.541489500E-2,-2.929500043E-1,9.676950455E0,2.007000208E0
4.667492800E-2,-3.000000119E-1,9.628950119E0,2.005050182E0
4.793496100E-2,-2.860500216E-1,9.628950119E0,2.028000116E0
4.919636700E-2,-2.830500007E-1,9.612000465E0,2.071950197E0
5.045731800E-2,-2.590500116E-1,9.616950035E0,2.062050104E0
5.171715400E-2,-2.830500007E-1,9.648000717E0,2.005050182E0
5.297731900E-2,-2.539499998E-1,9.574050903E0,2.032950163E0
5.423733600E-2,-3.019500077E-1,9.643050194E0,2.028000116E0
5.549739700E-2,-2.659500241E-1,9.622050285E0,2.014050007E0
5.675740500E-2,-2.860500216E-1,9.610050201E0,2.014050007E0
5.801741600E-2,-2.740500271E-1,9.631050110E0,1.971000075E0
5.928061200E-2,-2.569500208E-1,9.622050285E0,2.035950184E0
6.054287500E-2,-2.880000174E-1,9.634050369E0,2.031000137E0
6.180018400E-2,-2.980500162E-1,9.679050446E0,2.032950163E0
6.306018200E-2,-2.500500083E-1,9.628950119E0,2.026050091E0
6.432018200E-2,-2.689500153E-1,9.652950287E0,2.038050175E0
6.558018200E-2,-2.880000174E-1,9.679050446E0,2.035950184E0
6.684041300E-2,-2.569500208E-1,9.627000809E0,2.038050175E0
6.810042400E-2,-2.329500169E-1,9.658050537E0,2.040000200E0
6.936042400E-2,-3.090000153E-1,9.612000465E0,2.038050175E0
7.062042400E-2,-3.190500140E-1,9.622050285E0,2.055000067E0
7.188049900E-2,-2.899500132E-1,9.540000916E0,2.023950100E0
7.314050100E-2,-2.569500208E-1,9.658050537E0,2.050050020E0
7.440050100E-2,-2.809500098E-1,9.646050453E0,2.031000137E0
7.566050100E-2,-2.500500083E-1,9.610050201E0,2.104950190E0
7.692050100E-2,-2.350500077E-1,9.627000809E0,2.062050104E0
7.818074500E-2,-2.830500007E-1,9.607050896E0,2.052000046E0
7.944051600E-2,-3.000000119E-1,9.652950287E0,2.076000214E0
8.070074500E-2,-2.809500098E-1,9.616950035E0,2.078999996E0
8.196074700E-2,-2.639999986E-1,9.639000893E0,2.023950100E0
8.322074700E-2,-2.590500116E-1,9.627000809E0,2.056950092E0
8.448074700E-2,-3.090000153E-1,9.676950455E0,2.095950127E0
8.574074700E-2,-2.980500162E-1,9.651000023E0,2.088000059E0
8.700074700E-2,-2.760000229E-1,9.655050278E0,2.088000059E0
8.826082600E-2,-2.449500114E-1,9.664950371E0,2.071950197E0
8.952082800E-2,-2.449500114E-1,9.622050285E0,2.052000046E0
9.078082800E-2,-2.860500216E-1,9.627000809E0,2.035950184E0
9.204082800E-2,-2.899500132E-1,9.612000465E0,2.078999996E0
9.330082800E-2,-3.049500287E-1,9.655050278E0,2.062050104E0
9.456105700E-2,-2.760000229E-1,9.610050201E0,1.993050098E0
9.582105900E-2,-2.809500098E-1,9.639000893E0,2.042999983E0
9.708105900E-2,-2.710500062E-1,9.663000107E0,2.040000200E0
9.834107900E-2,-2.569500208E-1,9.639000893E0,2.011950016E0
9.960115400E-2,-2.689500153E-1,9.673950195E0,2.040000200E0
1.008610790E-1,-2.760000229E-1,9.628950119E0,2.067000151E0
1.021211540E-1,-2.899500132E-1,9.628950119E0,2.062050104E0
1.033811560E-1,-3.210000098E-1,9.579000473E0,2.064000130E0
1.046411560E-1,-2.880000174E-1,9.607050896E0,2.047950029E0
1.059011560E-1,-2.830500007E-1,9.636000633E0,2.014050007E0
1.071611560E-1,-2.860500216E-1,9.627000809E0,1.995000124E0
1.084211560E-1,-2.449500114E-1,9.595050812E0,2.074050188E0
1.096813840E-1,-3.120000064E-1,9.646050453E0,2.071950197E0
1.109413860E-1,-3.169500232E-1,9.604950905E0,2.067000151E0
1.122013860E-1,-2.500500083E-1,9.655050278E0,2.064000130E0
1.134613860E-1,-2.520000041E-1,9.607050896E0,2.007000208E0
1.147213860E-1,-3.070500195E-1,9.610050201E0,1.981050134E0
1.159814610E-1,-3.049500287E-1,9.634050369E0,2.035950184E0
1.172414630E-1,-2.760000229E-1,9.634050369E0,2.064000130E0
1.185014530E-1,-2.590500116E-1,9.604950905E0,2.092950106E0
1.197614530E-1,-2.779500186E-1,9.615000725E0,2.067000151E0
1.210214530E-1,-2.980500162E-1,9.616950035E0,2.059950113E0
1.222814530E-1,-2.659500241E-1,9.658050537E0,2.032950163E0
1.235416820E-1,-2.569500208E-1,9.667050362E0,2.068950176E0
1.248016840E-1,-3.240000010E-1,9.670050621E0,2.074050188E0
1.260616840E-1,-2.419500053E-1,9.604950905E0,2.023950100E0
1.273216840E-1,-3.000000119E-1,9.672000885E0,2.056950092E0
1.285816790E-1,-3.120000064E-1,9.646050453E0,2.083950043E0
1.298417540E-1,-2.419500053E-1,9.628950119E0,2.071950197E0
1.311017560E-1,-2.449500114E-1,9.670050621E0,2.023950100E0
1.323617560E-1,-2.639999986E-1,9.624000549E0,2.064000130E0
1.336217560E-1,-2.620500028E-1,9.610050201E0,2.023950100E0
1.348817560E-1,-3.120000064E-1,9.660000801E0,2.035950184E0
1.361417560E-1,-3.139500022E-1,9.663000107E0,2.044950008E0
1.374019850E-1,-2.740500271E-1,9.643050194E0,1.999950051E0
1.386620210E-1,-2.860500216E-1,9.651000023E0,2.038050175E0
1.399220210E-1,-3.360000253E-1,9.639000893E0,2.056950092E0
1.411820210E-1,-2.760000229E-1,9.624000549E0,2.055000067E0
1.424420210E-1,-2.950500250E-1,9.684000015E0,2.052000046E0
1.437020210E-1,-2.500500083E-1,9.673950195E0,2.056950092E0
1.449620960E-1,-2.740500271E-1,9.636000633E0,2.031000137E0
1.462220980E-1,-2.929500043E-1,9.651000023E0,2.064000130E0
1.474820980E-1,-2.760000229E-1,9.610050201E0,2.016000032E0
1.487421120E-1,-2.779500186E-1,9.667050362E0,2.067000151E0
1.500021120E-1,-2.620500028E-1,9.612000465E0,2.056950092E0
1.512623410E-1,-2.620500028E-1,9.622050285E0,2.019000053E0
1.525223430E-1,-2.569500208E-1,9.631050110E0,2.080950022E0
1.537823430E-1,-3.090000153E-1,9.622050285E0,2.062050104E0
1.550423430E-1,-3.169500232E-1,9.706050873E0,2.080950022E0
1.563023430E-1,-2.880000174E-1,9.628950119E0,2.031000137E0
1.575623430E-1,-3.259500265E-1,9.658050537E0,2.031000137E0
1.588224370E-1,-2.659500241E-1,9.636000633E0,2.028000116E0
1.600824390E-1,-2.500500083E-1,9.619050026E0,2.026050091E0
1.613424390E-1,-2.830500007E-1,9.612000465E0,2.044950008E0
1.626024390E-1,-2.590500116E-1,9.636000633E0,2.020950079E0
1.638624390E-1,-2.899500132E-1,9.646050453E0,2.044950008E0
1.651226670E-1,-2.449500114E-1,9.634050369E0,2.076000214E0
1.663826690E-1,-2.689500153E-1,9.685950279E0,2.071950197E0
1.676426690E-1,-2.880000174E-1,9.624000549E0,2.047950029E0
1.689026930E-1,-2.639999986E-1,9.648000717E0,2.083950043E0
1.701626930E-1,-3.000000119E-1,9.615000725E0,2.026050091E0
1.714226930E-1,-2.779500186E-1,9.615000725E0,2.019000053E0
1.726827680E-1,-2.689500153E-1,9.652950287E0,2.064000130E0
1.739427700E-1,-2.400000095E-1,9.616950035E0,2.031000137E0
1.752027700E-1,-2.539499998E-1,9.664950371E0,2.059950113E0
1.764627700E-1,-2.659500241E-1,9.655050278E0,2.038050175E0
1.777227700E-1,-2.280000150E-1,9.631050110E0,2.016000032E0
1.789827900E-1,-2.659500241E-1,9.622050285E0,2.050050020E0
1.802430190E-1,-2.590500116E-1,9.603000641E0,2.067000151E0
1.815030210E-1,-2.689500153E-1,9.655050278E0,2.028000116E0
1.827630210E-1,-2.620500028E-1,9.643050194E0,2.035950184E0
1.840230210E-1,-3.169500232E-1,9.646050453E0,2.031000137E0
1.852830210E-1,-2.539499998E-1,9.616950035E0,2.005050182E0
1.865430210E-1,-2.830500007E-1,9.643050194E0,2.032950163E0
1.878030960E-1,-2.689500153E-1,9.688950539E0,2.062050104E0
1.890631020E-1,-2.760000229E-1,9.658050537E0,2.076000214E0
1.903231020E-1,-2.639999986E-1,9.610050201E0,2.083950043E0
1.915831020E-1,-3.120000064E-1,9.595050812E0,2.023950100E0
1.928431020E-1,-2.860500216E-1,9.610050201E0,2.040000200E0
1.941033310E-1,-2.899500132E-1,9.592950821E0,2.064000130E0
1.953633330E-1,-2.880000174E-1,9.628950119E0,2.064000130E0
1.966233330E-1,-3.000000119E-1,9.591000557E0,2.038050175E0
1.978833330E-1,-3.070500195E-1,9.655050278E0,2.076000214E0
1.991433480E-1,-2.520000041E-1,9.664950371E0,2.038050175E0
2.004033480E-1,-2.760000229E-1,9.643050194E0,2.040000200E0
2.016634230E-1,-2.590500116E-1,9.607050896E0,2.028000116E0
2.029234250E-1,-2.639999986E-1,9.624000549E0,2.007000208E0
2.041834250E-1,-2.980500162E-1,9.588000298E0,2.052000046E0
2.054434250E-1,-3.019500077E-1,9.624000549E0,2.056950092E0
2.067034250E-1,-2.500500083E-1,9.643050194E0,2.040000200E0
2.079636540E-1,-2.329500169E-1,9.592950821E0,2.044950008E0
2.092236560E-1,-2.520000041E-1,9.580950737E0,2.052000046E0
2.104836560E-1,-2.860500216E-1,9.622050285E0,2.056950092E0
2.117436560E-1,-2.860500216E-1,9.660000801E0,2.092950106E0
2.130036560E-1,-2.950500250E-1,9.664950371E0,2.080950022E0
2.142636560E-1,-2.380500138E-1,9.624000549E0,2.091000080E0
2.155236560E-1,-2.350500077E-1,9.684000015E0,2.047950029E0
2.167837300E-1,-2.779500186E-1,9.600000381E0,1.999950051E0
2.180437320E-1,-2.830500007E-1,9.600000381E0,2.068950176E0
2.193037410E-1,-2.899500132E-1,9.622050285E0,2.050050020E0
2.205637410E-1,-2.950500250E-1,9.628950119E0,2.020950079E0
2.218239700E-1,-2.899500132E-1,9.616950035E0,2.064000130E0
2.230839720E-1,-2.880000174E-1,9.672000885E0,2.091000080E0
2.243439720E-1,-2.830500007E-1,9.603000641E0,2.052000046E0
2.256039720E-1,-2.710500062E-1,9.616950035E0,2.056950092E0
2.268639720E-1,-2.710500062E-1,9.636000633E0,2.019000053E0
2.281239720E-1,-2.659500241E-1,9.663000107E0,2.032950163E0
2.293840330E-1,-2.779500186E-1,9.688950539E0,2.035950184E0
2.306440350E-1,-2.710500062E-1,9.631050110E0,2.067000151E0
2.319039580E-1,-2.980500162E-1,9.628950119E0,2.064000130E0
2.331640330E-1,-3.289500177E-1,9.636000633E0,2.074050188E0
2.344240350E-1,-3.090000153E-1,9.643050194E0,2.047950029E0
2.356842640E-1,-2.779500186E-1,9.646050453E0,2.026050091E0
2.369440350E-1,-2.539499998E-1,9.616950035E0,2.052000046E0
2.382042640E-1,-2.400000095E-1,9.636000633E0,1.996950150E0
2.394642900E-1,-2.400000095E-1,9.664950371E0,1.999950051E0
2.407242900E-1,-2.449500114E-1,9.640950203E0,2.032950163E0
2.419842900E-1,-2.950500250E-1,9.634050369E0,2.056950092E0
2.432442900E-1,-2.689500153E-1,9.646050453E0,2.050050020E0
2.445042900E-1,-2.760000229E-1,9.622050285E0,2.023950100E0
2.457643650E-1,-2.400000095E-1,9.652950287E0,2.016000032E0
2.470243670E-1,-2.860500216E-1,9.640950203E0,2.038050175E0
2.482843670E-1,-2.830500007E-1,9.604950905E0,2.076000214E0
2.495443720E-1,-2.809500098E-1,9.640950203E0,2.062050104E0
2.508046010E-1,-2.639999986E-1,9.655050278E0,2.040000200E0
2.520646030E-1,-2.639999986E-1,9.652950287E0,2.016000032E0
2.533243720E-1,-2.569500208E-1,9.667050362E0,1.999950051E0
2.545846010E-1,-2.740500271E-1,9.634050369E0,1.999950051E0
2.558446030E-1,-3.070500195E-1,9.639000893E0,2.055000067E0
2.571046780E-1,-3.070500195E-1,9.663000107E0,2.044950008E0
2.583646030E-1,-2.639999986E-1,9.595050812E0,2.052000046E0
2.596246780E-1,-2.710500062E-1,9.588000298E0,2.019000053E0
2.608846800E-1,-2.689500153E-1,9.631050110E0,2.031000137E0
2.621446800E-1,-2.880000174E-1,9.627000809E0,2.068950176E0
2.634046800E-1,-3.000000119E-1,9.622050285E0,2.068950176E0
2.646646800E-1,-3.259500265E-1,9.624000549E0,2.056950092E0
2.659246800E-1,-3.019500077E-1,9.595050812E0,2.020950079E0
2.671849080E-1,-2.880000174E-1,9.660000801E0,2.052000046E0
2.684449100E-1,-2.929500043E-1,9.670050621E0,1.983000040E0
2.697049180E-1,-2.779500186E-1,9.663000107E0,2.005050182E0
2.709649180E-1,-2.860500216E-1,9.571050644E0,2.055000067E0
2.722249930E-1,-2.400000095E-1,9.588000298E0,2.038050175E0
2.734849950E-1,-2.760000229E-1,9.660000801E0,2.068950176E0
2.747449950E-1,-2.980500162E-1,9.672000885E0,2.098050117E0
2.760049950E-1,-2.539499998E-1,9.651000023E0,2.078999996E0
2.772649950E-1,-2.830500007E-1,9.610050201E0,2.055000067E0
2.785252240E-1,-2.830500007E-1,9.619050026E0,2.103000164E0
2.797852360E-1,-2.929500043E-1,9.640950203E0,2.052000046E0
2.810452360E-1,-2.929500043E-1,9.634050369E0,2.047950029E0
2.823052360E-1,-2.880000174E-1,9.639000893E0,2.014050007E0
2.835652360E-1,-2.830500007E-1,9.634050369E0,2.035950184E0
2.848252360E-1,-2.620500028E-1,9.592950821E0,2.056950092E0
2.860852360E-1,-2.880000174E-1,9.598050117E0,2.031000137E0
2.873452360E-1,-2.760000229E-1,9.667050362E0,2.080950022E0
2.886052360E-1,-2.899500132E-1,9.634050369E0,2.064000130E0
2.898653060E-1,-2.779500186E-1,9.636000633E0,2.056950092E0
2.911253080E-1,-2.539499998E-1,9.631050110E0,2.032950163E0
2.923853080E-1,-3.310500085E-1,9.636000633E0,2.078999996E0
2.936453080E-1,-2.659500241E-1,9.610050201E0,2.068950176E0
2.949055370E-1,-2.779500186E-1,9.600000381E0,2.040000200E0
2.961655390E-1,-3.330000043E-1,9.604950905E0,2.056950092E0
2.974255390E-1,-3.070500195E-1,9.624000549E0,2.050050020E0
2.986855390E-1,-3.000000119E-1,9.619050026E0,2.008949995E0
2.999456190E-1,-2.539499998E-1,9.619050026E0,2.047950029E0
3.012056210E-1,-2.689500153E-1,9.673950195E0,2.068950176E0
3.024656210E-1,-2.899500132E-1,9.586050034E0,2.038050175E0
3.037256210E-1,-2.899500132E-1,9.627000809E0,2.056950092E0
3.049856210E-1,-2.689500153E-1,9.634050369E0,2.059950113E0
3.062456210E-1,-3.070500195E-1,9.631050110E0,2.042999983E0
3.075056210E-1,-2.809500098E-1,9.655050278E0,2.019000053E0
3.087656210E-1,-2.860500216E-1,9.648000717E0,2.068950176E0
3.100256110E-1,-2.710500062E-1,9.639000893E0,2.047950029E0
3.112858400E-1,-2.470500171E-1,9.592950821E0,2.116950035E0
3.125458420E-1,-2.620500028E-1,9.652950287E0,2.067000151E0
3.138058420E-1,-2.620500028E-1,9.667050362E0,2.056950092E0
3.150658420E-1,-2.569500208E-1,9.640950203E0,2.019000053E0
3.163258420E-1,-2.980500162E-1,9.622050285E0,2.047950029E0
3.175859170E-1,-2.620500028E-1,9.588000298E0,2.038050175E0
3.188459190E-1,-2.950500250E-1,9.624000549E0,2.032950163E0
3.201059240E-1,-2.710500062E-1,9.655050278E0,2.007000208E0
3.213659240E-1,-2.689500153E-1,9.631050110E0,2.055000067E0
3.226259240E-1,-2.470500171E-1,9.648000717E0,2.007000208E0
3.238861520E-1,-3.049500287E-1,9.685950279E0,2.068950176E0
3.251461540E-1,-2.710500062E-1,9.648000717E0,2.056950092E0
3.264061540E-1,-2.779500186E-1,9.576000214E0,1.996950150E0
3.276661540E-1,-2.809500098E-1,9.610050201E0,2.050050020E0
3.289261540E-1,-2.659500241E-1,9.660000801E0,2.047950029E0
3.301861490E-1,-2.779500186E-1,9.619050026E0,2.078999996E0
3.314461490E-1,-2.350500077E-1,9.603000641E0,2.020950079E0
3.327062240E-1,-2.419500053E-1,9.586050034E0,2.050050020E0
3.339662260E-1,-2.590500116E-1,9.648000717E0,2.038050175E0
3.352262260E-1,-3.070500195E-1,9.648000717E0,2.032950163E0
3.364862260E-1,-3.000000119E-1,9.648000717E0,2.026050091E0
3.377462260E-1,-2.760000229E-1,9.616950035E0,1.999950051E0
3.390064550E-1,-2.590500116E-1,9.655050278E0,2.008949995E0
3.402664620E-1,-2.470500171E-1,9.615000725E0,2.103000164E0
3.415264620E-1,-3.090000153E-1,9.598050117E0,2.055000067E0
3.427864620E-1,-2.980500162E-1,9.610050201E0,2.032950163E0
3.440464620E-1,-2.689500153E-1,9.622050285E0,2.076000214E0
3.453064620E-1,-2.830500007E-1,9.615000725E0,2.076000214E0
3.465665370E-1,-2.899500132E-1,9.619050026E0,2.059950113E0
3.478265390E-1,-2.639999986E-1,9.651000023E0,2.031000137E0
3.490865390E-1,-2.980500162E-1,9.636000633E0,2.055000067E0
3.503465440E-1,-2.569500208E-1,9.651000023E0,2.044950008E0
3.516065440E-1,-2.620500028E-1,9.616950035E0,2.038050175E0
3.528667730E-1,-2.980500162E-1,9.603000641E0,2.016000032E0
3.541267750E-1,-2.880000174E-1,9.622050285E0,2.047950029E0
3.553867750E-1,-2.830500007E-1,9.646050453E0,2.052000046E0
3.566467750E-1,-3.019500077E-1,9.619050026E0,2.044950008E0
3.579067750E-1,-2.740500271E-1,9.604950905E0,2.023950100E0
3.591667750E-1,-2.160000056E-1,9.592950821E0,2.074050188E0
3.604268450E-1,-2.569500208E-1,9.636000633E0,2.067000151E0
3.616868470E-1,-2.710500062E-1,9.610050201E0,1.995000124E0
3.629468470E-1,-2.539499998E-1,9.592950821E0,2.040000200E0
3.642068470E-1,-3.090000153E-1,9.652950287E0,2.038050175E0
3.654668470E-1,-2.860500216E-1,9.663000107E0,2.071950197E0
3.667268470E-1,-2.830500007E-1,9.631050110E0,2.059950113E0
3.679870760E-1,-3.090000153E-1,9.664950371E0,2.044950008E0
3.692470780E-1,-2.400000095E-1,9.664950371E0,2.032950163E0
3.705070730E-1,-2.779500186E-1,9.682050705E0,2.047950029E0
3.717670730E-1,-3.019500077E-1,9.640950203E0,2.040000200E0
3.730270730E-1,-3.120000064E-1,9.622050285E0,2.038050175E0
3.742871470E-1,-3.019500077E-1,9.651000023E0,2.023950100E0
3.755471490E-1,-2.350500077E-1,9.639000893E0,2.008949995E0
3.768071490E-1,-2.809500098E-1,9.639000893E0,2.028000116E0
3.780671490E-1,-2.830500007E-1,9.619050026E0,2.008949995E0
3.793271490E-1,-2.899500132E-1,9.624000549E0,2.038050175E0
3.805873730E-1,-2.860500216E-1,9.624000549E0,2.064000130E0
3.818473750E-1,-3.019500077E-1,9.648000717E0,2.032950163E0
3.831073750E-1,-2.639999986E-1,9.655050278E0,2.050050020E0
3.843673750E-1,-2.760000229E-1,9.639000893E0,2.040000200E0
3.856273750E-1,-2.449500114E-1,9.619050026E0,2.052000046E0
3.868873750E-1,-2.350500077E-1,9.592950821E0,2.064000130E0
3.881474500E-1,-2.950500250E-1,9.580950737E0,2.040000200E0
3.894074520E-1,-2.470500171E-1,9.634050369E0,2.035950184E0
3.906674670E-1,-2.620500028E-1,9.616950035E0,2.038050175E0
3.919274670E-1,-2.710500062E-1,9.588000298E0,2.067000151E0
3.931874670E-1,-3.049500287E-1,9.615000725E0,2.040000200E0
3.944474670E-1,-2.929500043E-1,9.652950287E0,1.995000124E0
3.957076960E-1,-2.760000229E-1,9.643050194E0,2.040000200E0
3.969676980E-1,-3.049500287E-1,9.664950371E0,2.028000116E0
3.982276980E-1,-2.950500250E-1,9.628950119E0,2.067000151E0
3.994876980E-1,-2.760000229E-1,9.628950119E0,2.067000151E0
4.007476690E-1,-2.639999986E-1,9.604950905E0,2.052000046E0
4.020076690E-1,-2.520000041E-1,9.639000893E0,2.035950184E0
4.032677440E-1,-2.639999986E-1,9.628950119E0,2.038050175E0
4.045277460E-1,-2.689500153E-1,9.615000725E0,2.059950113E0
4.057877460E-1,-2.880000174E-1,9.607050896E0,2.067000151E0
4.070477460E-1,-2.760000229E-1,9.634050369E0,2.040000200E0
4.083077460E-1,-3.240000010E-1,9.627000809E0,2.047950029E0
4.095679750E-1,-3.120000064E-1,9.640950203E0,2.005050182E0
4.108279620E-1,-2.899500132E-1,9.639000893E0,2.014050007E0
4.120879620E-1,-2.860500216E-1,9.603000641E0,2.050050020E0
4.133479620E-1,-2.659500241E-1,9.592950821E0,2.031000137E0
4.146079620E-1,-2.590500116E-1,9.616950035E0,2.074050188E0
4.158680370E-1,-2.419500053E-1,9.655050278E0,2.040000200E0
4.171280390E-1,-2.830500007E-1,9.588000298E0,2.042999983E0
4.183880390E-1,-3.120000064E-1,9.622050285E0,2.044950008E0
4.196480390E-1,-2.590500116E-1,9.628950119E0,2.035950184E0
4.209080250E-1,-2.760000229E-1,9.651000023E0,2.035950184E0
4.221680250E-1,-3.070500195E-1,9.580950737E0,2.059950113E0
4.234282530E-1,-2.400000095E-1,9.658050537E0,2.056950092E0
4.246882550E-1,-2.860500216E-1,9.664950371E0,2.055000067E0
4.259482550E-1,-2.860500216E-1,9.619050026E0,2.042999983E0
4.272082550E-1,-2.740500271E-1,9.615000725E0,2.076000214E0
4.284682550E-1,-2.449500114E-1,9.655050278E0,2.086050034E0
4.297283300E-1,-2.760000229E-1,9.660000801E0,2.020950079E0
4.309883320E-1,-2.929500043E-1,9.636000633E0,2.023950100E0
4.322483320E-1,-3.000000119E-1,9.627000809E0,2.032950163E0
4.335083320E-1,-2.899500132E-1,9.627000809E0,2.014050007E0
4.347683320E-1,-2.689500153E-1,9.676950455E0,2.076000214E0
4.360283320E-1,-2.980500162E-1,9.672000885E0,2.059950113E0
4.372885610E-1,-2.779500186E-1,9.636000633E0,2.056950092E0
4.385485630E-1,-2.710500062E-1,9.612000465E0,2.014050007E0
4.398085630E-1,-2.860500216E-1,9.639000893E0,2.031000137E0
4.410685580E-1,-2.779500186E-1,9.619050026E0,2.074050188E0
4.423285580E-1,-2.880000174E-1,9.610050201E0,2.055000067E0
4.435885580E-1,-3.000000119E-1,9.643050194E0,2.074050188E0
4.448485580E-1,-2.329500169E-1,9.576000214E0,2.067000151E0
4.461086330E-1,-2.760000229E-1,9.598050117E0,2.020950079E0
4.473686350E-1,-2.539499998E-1,9.673950195E0,2.038050175E0
4.486286350E-1,-2.880000174E-1,9.651000023E0,1.987950087E0
4.498886350E-1,-2.880000174E-1,9.595050812E0,2.044950008E0
4.511488640E-1,-2.710500062E-1,9.652950287E0,2.026050091E0
4.524088660E-1,-3.049500287E-1,9.660000801E0,2.031000137E0
4.536688660E-1,-3.090000153E-1,9.604950905E0,2.028000116E0
4.549288660E-1,-2.740500271E-1,9.604950905E0,2.035950184E0
4.561888660E-1,-3.049500287E-1,9.667050362E0,2.040000200E0
4.574488660E-1,-2.539499998E-1,9.628950119E0,2.059950113E0
4.587089410E-1,-2.380500138E-1,9.588000298E0,2.071950197E0
4.599689430E-1,-2.449500114E-1,9.636000633E0,2.083950043E0
4.612289010E-1,-2.860500216E-1,9.604950905E0,2.091000080E0
4.624889010E-1,-2.830500007E-1,9.655050278E0,2.067000151E0
4.637489010E-1,-2.500500083E-1,9.684000015E0,2.088000059E0
4.650091300E-1,-2.569500208E-1,9.631050110E0,2.047950029E0
4.662689010E-1,-2.779500186E-1,9.639000893E0,2.047950029E0
4.675291300E-1,-2.520000041E-1,9.636000633E0,2.098050117E0
4.687891320E-1,-2.520000041E-1,9.652950287E0,2.047950029E0
4.700491320E-1,-2.809500098E-1,9.612000465E0,2.020950079E0
4.713091270E-1,-3.049500287E-1,9.628950119E0,2.044950008E0
4.725692020E-1,-2.659500241E-1,9.655050278E0,2.055000067E0
4.738292040E-1,-2.710500062E-1,9.628950119E0,2.047950029E0
4.750892040E-1,-3.139500022E-1,9.648000717E0,2.035950184E0
4.763492040E-1,-2.830500007E-1,9.628950119E0,2.014050007E0
4.776092040E-1,-3.139500022E-1,9.627000809E0,2.055000067E0
4.788692040E-1,-2.740500271E-1,9.651000023E0,2.047950029E0
4.801294320E-1,-3.210000098E-1,9.628950119E0,2.056950092E0
4.813894290E-1,-3.289500177E-1,9.612000465E0,2.056950092E0
4.826494290E-1,-2.860500216E-1,9.643050194E0,2.055000067E0
4.839094290E-1,-2.779500186E-1,9.655050278E0,2.056950092E0
4.851694290E-1,-2.329500169E-1,9.655050278E0,2.005050182E0
4.864294290E-1,-2.899500132E-1,9.646050453E0,2.068950176E0
4.876894290E-1,-3.360000253E-1,9.652950287E0,2.035950184E0
4.889495040E-1,-2.590500116E-1,9.648000717E0,2.056950092E0
4.902095060E-1,-2.899500132E-1,9.639000893E0,2.076000214E0
4.914694820E-1,-3.049500287E-1,9.595050812E0,2.032950163E0
4.927294820E-1,-2.929500043E-1,9.598050117E0,2.100000143E0
4.939894820E-1,-2.899500132E-1,9.651000023E0,2.095950127E0
4.952497110E-1,-2.470500171E-1,9.643050194E0,2.080950022E0
4.965097130E-1,-2.569500208E-1,9.651000023E0,2.050050020E0
4.977697130E-1,-3.000000119E-1,9.655050278E0,2.019000053E0
4.990297130E-1,-2.449500114E-1,9.622050285E0,2.064000130E0
5.002897130E-1,-2.350500077E-1,9.627000809E0,2.076000214E0
5.015497980E-1,-3.289500177E-1,9.628950119E0,2.047950029E0
5.028098000E-1,-2.860500216E-1,9.627000809E0,2.031000137E0
5.040698000E-1,-2.760000229E-1,9.615000725E0,2.062050104E0
5.053298000E-1,-2.639999986E-1,9.639000893E0,2.086050034E0
5.065898000E-1,-2.710500062E-1,9.655050278E0,2.028000116E0
5.078500290E-1,-2.830500007E-1,9.672000885E0,1.978050113E0
5.091098000E-1,-2.929500043E-1,9.673950195E0,2.040000200E0
5.103700290E-1,-2.809500098E-1,9.658050537E0,2.042999983E0
5.116300350E-1,-2.809500098E-1,9.643050194E0,2.083950043E0
5.128900350E-1,-2.520000041E-1,9.631050110E0,2.038050175E0
5.141500350E-1,-3.090000153E-1,9.631050110E0,2.026050091E0
5.154100350E-1,-2.880000174E-1,9.631050110E0,2.008949995E0
5.166700350E-1,-2.860500216E-1,9.640950203E0,2.055000067E0
5.179300350E-1,-2.860500216E-1,9.670050621E0,2.031000137E0
5.191901100E-1,-2.689500153E-1,9.634050369E0,2.062050104E0
5.204501120E-1,-2.569500208E-1,9.658050537E0,2.031000137E0
5.217101170E-1,-2.620500028E-1,9.628950119E0,2.050050020E0
5.229701170E-1,-2.659500241E-1,9.636000633E0,2.007000208E0
5.242303460E-1,-2.710500062E-1,9.643050194E0,2.047950029E0
5.254903480E-1,-2.740500271E-1,9.639000893E0,2.020950079E0
5.267503480E-1,-2.809500098E-1,9.648000717E0,2.019000053E0
5.280103480E-1,-2.280000150E-1,9.648000717E0,2.040000200E0
5.292704220E-1,-2.740500271E-1,9.628950119E0,2.031000137E0
5.305303480E-1,-2.520000041E-1,9.643050194E0,2.020950079E0
5.317904270E-1,-2.809500098E-1,9.643050194E0,2.050050020E0
5.330504290E-1,-2.980500162E-1,9.598050117E0,2.042999983E0
5.343104290E-1,-2.740500271E-1,9.643050194E0,2.042999983E0
5.355704290E-1,-2.950500250E-1,9.591000557E0,2.008949995E0
5.368304290E-1,-2.260500044E-1,9.646050453E0,2.014050007E0
5.380904290E-1,-2.689500153E-1,9.643050194E0,2.056950092E0
5.393504290E-1,-2.830500007E-1,9.586050034E0,2.008949995E0
5.406106580E-1,-2.639999986E-1,9.598050117E0,2.086050034E0
5.418706550E-1,-3.000000119E-1,9.639000893E0,2.044950008E0
5.431306550E-1,-2.809500098E-1,9.663000107E0,2.055000067E0
5.443906550E-1,-3.139500022E-1,9.598050117E0,2.055000067E0
5.456507300E-1,-2.689500153E-1,9.640950203E0,2.056950092E0
5.469107320E-1,-2.710500062E-1,9.646050453E0,2.042999983E0
5.481707320E-1,-2.950500250E-1,9.672000885E0,2.055000067E0
5.494307320E-1,-2.779500186E-1,9.603000641E0,2.026050091E0
5.506909610E-1,-3.120000064E-1,9.624000549E0,2.088000059E0
5.519507270E-1,-2.899500132E-1,9.607050896E0,2.074050188E0
5.532109560E-1,-2.760000229E-1,9.583050728E0,2.020950079E0
5.544709580E-1,-2.689500153E-1,9.652950287E0,2.002050161E0
5.557309580E-1,-2.779500186E-1,9.636000633E0,2.055000067E0
5.569909580E-1,-2.449500114E-1,9.646050453E0,2.047950029E0
5.582509580E-1,-3.259500265E-1,9.624000549E0,2.078999996E0
5.595109580E-1,-3.450000286E-1,9.639000893E0,2.042999983E0
5.607710330E-1,-2.929500043E-1,9.672000885E0,2.032950163E0
5.620310550E-1,-2.830500007E-1,9.651000023E0,2.083950043E0
5.632910550E-1,-2.929500043E-1,9.603000641E0,2.044950008E0
5.645510550E-1,-2.899500132E-1,9.682050705E0,2.008949995E0
5.658110550E-1,-2.740500271E-1,9.651000023E0,2.059950113E0
5.670710550E-1,-2.520000041E-1,9.624000549E0,2.031000137E0
5.683312840E-1,-3.169500232E-1,9.612000465E0,2.074050188E0
5.695912860E-1,-2.779500186E-1,9.588000298E0,2.068950176E0
5.708512860E-1,-2.710500062E-1,9.652950287E0,2.028000116E0
5.721113190E-1,-3.019500077E-1,9.672000885E0,2.023950100E0
5.733713190E-1,-2.740500271E-1,9.651000023E0,2.032950163E0
5.746313940E-1,-2.590500116E-1,9.627000809E0,2.052000046E0
5.758913960E-1,-2.689500153E-1,9.628950119E0,2.088000059E0
5.771513960E-1,-3.000000119E-1,9.636000633E0,2.047950029E0
5.784113960E-1,-2.760000229E-1,9.591000557E0,2.078999996E0
5.796713960E-1,-2.880000174E-1,9.615000725E0,2.083950043E0
5.809313960E-1,-2.449500114E-1,9.655050278E0,2.088000059E0
5.821916390E-1,-2.500500083E-1,9.679050446E0,2.067000151E0
5.834516410E-1,-3.379500210E-1,9.607050896E0,2.031000137E0
5.847116410E-1,-2.830500007E-1,9.603000641E0,2.008949995E0
5.859716410E-1,-2.639999986E-1,9.634050369E0,2.028000116E0
5.872316410E-1,-2.860500216E-1,9.615000725E0,2.083950043E0
5.884916410E-1,-3.070500195E-1,9.634050369E0,2.016000032E0
5.897517160E-1,-3.090000153E-1,9.640950203E0,2.026050091E0
5.910117180E-1,-2.760000229E-1,9.634050369E0,2.047950029E0
5.922717180E-1,-2.860500216E-1,9.627000809E0,2.055000067E0
5.935317180E-1,-2.760000229E-1,9.610050201E0,2.038050175E0
5.947917180E-1,-2.470500171E-1,9.655050278E0,2.088000059E0
5.960517180E-1,-3.000000119E-1,9.622050285E0,2.055000067E0
5.973119470E-1,-2.950500250E-1,9.595050812E0,2.071950197E0
5.985719490E-1,-2.830500007E-1,9.646050453E0,2.064000130E0
5.998319490E-1,-2.500500083E-1,9.610050201E0,2.071950197E0
6.010919490E-1,-2.590500116E-1,9.628950119E0,2.062050104E0
6.023519580E-1,-2.569500208E-1,9.604950905E0,2.040000200E0
6.036120330E-1,-2.659500241E-1,9.607050896E0,2.050050020E0
6.048720350E-1,-2.400000095E-1,9.624000549E0,2.014050007E0
6.061320350E-1,-2.860500216E-1,9.682050705E0,2.026050091E0
6.073920350E-1,-2.830500007E-1,9.607050896E0,2.064000130E0
6.086520350E-1,-3.360000253E-1,9.567000389E0,2.059950113E0
6.099120350E-1,-2.520000041E-1,9.619050026E0,2.042999983E0
6.111722640E-1,-2.779500186E-1,9.615000725E0,2.040000200E0
6.124322710E-1,-2.950500250E-1,9.603000641E0,2.031000137E0
6.136922710E-1,-2.860500216E-1,9.658050537E0,2.031000137E0
6.149522710E-1,-2.710500062E-1,9.651000023E0,2.031000137E0
6.162122710E-1,-2.470500171E-1,9.652950287E0,2.040000200E0
6.174723460E-1,-2.659500241E-1,9.615000725E0,2.028000116E0
6.187323480E-1,-2.830500007E-1,9.627000809E0,2.067000151E0
6.199923480E-1,-2.760000229E-1,9.615000725E0,2.062050104E0
6.212523480E-1,-2.760000229E-1,9.603000641E0,2.086050034E0
6.225123620E-1,-2.809500098E-1,9.579000473E0,2.042999983E0
6.237723620E-1,-2.760000229E-1,9.631050110E0,2.047950029E0
6.250325910E-1,-2.569500208E-1,9.640950203E0,2.080950022E0
6.262925930E-1,-2.779500186E-1,9.610050201E0,2.032950163E0
6.275525930E-1,-2.740500271E-1,9.627000809E0,2.067000151E0
6.288125930E-1,-3.190500140E-1,9.579000473E0,2.067000151E0
6.300725930E-1,-2.500500083E-1,9.646050453E0,2.086050034E0
6.313325930E-1,-2.740500271E-1,9.643050194E0,2.068950176E0
6.325926780E-1,-3.000000119E-1,9.628950119E0,1.995000124E0
6.338526800E-1,-3.000000119E-1,9.651000023E0,2.052000046E0
6.351126800E-1,-2.950500250E-1,9.612000465E0,2.032950163E0
6.363726800E-1,-2.860500216E-1,9.679050446E0,2.016000032E0
6.376326800E-1,-2.779500186E-1,9.682050705E0,2.047950029E0
6.388929080E-1,-2.639999986E-1,9.663000107E0,2.055000067E0
6.401529100E-1,-3.330000043E-1,9.639000893E0,2.100000143E0
6.414129100E-1,-3.190500140E-1,9.598050117E0,2.095950127E0
6.426729280E-1,-3.480000198E-1,9.660000801E0,2.107050180E0
6.439329280E-1,-2.539499998E-1,9.624000549E0,2.050050020E0
6.451930030E-1,-2.659500241E-1,9.639000893E0,2.088000059E0
6.464530050E-1,-2.899500132E-1,9.627000809E0,2.078999996E0
6.477130050E-1,-2.950500250E-1,9.660000801E0,2.055000067E0
6.489730050E-1,-2.659500241E-1,9.628950119E0,2.032950163E0
6.502330050E-1,-2.779500186E-1,9.640950203E0,2.067000151E0
6.514930050E-1,-2.760000229E-1,9.673950195E0,2.008949995E0
6.527532480E-1,-3.240000010E-1,9.604950905E0,2.068950176E0
6.540132500E-1,-2.830500007E-1,9.622050285E0,2.080950022E0
6.552732500E-1,-3.000000119E-1,9.631050110E0,2.047950029E0
6.565332500E-1,-3.000000119E-1,9.648000717E0,2.091000080E0
6.577932500E-1,-3.070500195E-1,9.627000809E0,2.007000208E0
6.590532500E-1,-2.929500043E-1,9.694050789E0,2.035950184E0
6.603133250E-1,-2.659500241E-1,9.658050537E0,2.031000137E0
6.615733270E-1,-2.539499998E-1,9.631050110E0,2.016000032E0
6.628333220E-1,-2.659500241E-1,9.619050026E0,2.059950113E0
6.640933220E-1,-2.880000174E-1,9.636000633E0,2.062050104E0
6.653533220E-1,-2.950500250E-1,9.646050453E0,2.016000032E0
6.666135510E-1,-2.760000229E-1,9.651000023E0,2.031000137E0
6.678735530E-1,-3.019500077E-1,9.603000641E0,2.002050161E0
6.691335530E-1,-2.779500186E-1,9.658050537E0,1.996950150E0
6.703935530E-1,-2.639999986E-1,9.664950371E0,2.032950163E0
6.716535530E-1,-2.689500153E-1,9.619050026E0,2.008949995E0
6.729135580E-1,-2.880000174E-1,9.624000549E0,2.056950092E0
6.741736330E-1,-2.929500043E-1,9.622050285E0,2.026050091E0
6.754336350E-1,-2.590500116E-1,9.595050812E0,2.056950092E0
6.766936350E-1,-3.139500022E-1,9.643050194E0,2.080950022E0
6.779536350E-1,-2.929500043E-1,9.634050369E0,2.031000137E0
6.792136350E-1,-2.740500271E-1,9.588000298E0,2.026050091E0
6.804736350E-1,-2.620500028E-1,9.600000381E0,2.038050175E0
6.817338640E-1,-2.449500114E-1,9.615000725E0,2.056950092E0
6.829938570E-1,-2.160000056E-1,9.646050453E0,2.095950127E0
6.842538570E-1,-2.740500271E-1,9.636000633E0,2.056950092E0
6.855138570E-1,-3.450000286E-1,9.619050026E0,2.055000067E0
6.867738570E-1,-2.860500216E-1,9.636000633E0,2.031000137E0
6.880339310E-1,-2.590500116E-1,9.612000465E0,2.062050104E0
6.892939330E-1,-2.860500216E-1,9.616950035E0,2.056950092E0
6.905539330E-1,-2.860500216E-1,9.636000633E0,2.074050188E0
6.918139330E-1,-2.280000150E-1,9.658050537E0,2.050050020E0
6.930739430E-1,-2.539499998E-1,9.612000465E0,2.080950022E0
6.943339430E-1,-2.520000041E-1,9.685950279E0,2.083950043E0
6.955941720E-1,-2.400000095E-1,9.631050110E0,2.032950163E0
6.968541740E-1,-3.120000064E-1,9.628950119E0,2.026050091E0
6.981141740E-1,-2.860500216E-1,9.627000809E0,2.016000032E0
6.993741740E-1,-2.760000229E-1,9.616950035E0,2.047950029E0
7.006341740E-1,-2.689500153E-1,9.640950203E0,1.995000124E0
7.018942490E-1,-2.419500053E-1,9.640950203E0,2.050050020E0
7.031542460E-1,-2.980500162E-1,9.615000725E0,2.098050117E0
7.044142460E-1,-2.689500153E-1,9.646050453E0,2.040000200E0
7.056742460E-1,-2.740500271E-1,9.643050194E0,2.026050091E0
7.069342460E-1,-2.950500250E-1,9.639000893E0,2.052000046E0
7.081942460E-1,-2.779500186E-1,9.636000633E0,1.999950051E0
7.094544750E-1,-2.639999986E-1,9.640950203E0,2.035950184E0
7.107144770E-1,-3.190500140E-1,9.640950203E0,2.005050182E0
7.119744770E-1,-3.190500140E-1,9.616950035E0,2.031000137E0
7.132344580E-1,-2.950500250E-1,9.592950821E0,2.040000200E0
7.144944580E-1,-3.210000098E-1,9.639000893E0,2.038050175E0
7.157544580E-1,-3.210000098E-1,9.640950203E0,2.007000208E0
7.170145330E-1,-2.880000174E-1,9.652950287E0,1.993050098E0
7.182744580E-1,-2.760000229E-1,9.600000381E0,2.068950176E0
7.195345330E-1,-2.329500169E-1,9.651000023E0,2.086050034E0
7.207945350E-1,-2.830500007E-1,9.628950119E0,2.067000151E0
7.220545350E-1,-2.809500098E-1,9.628950119E0,2.005050182E0
7.233147740E-1,-3.090000153E-1,9.631050110E0,2.095950127E0
7.245747760E-1,-2.830500007E-1,9.663000107E0,2.052000046E0
7.258347760E-1,-2.569500208E-1,9.628950119E0,2.044950008E0
7.270947760E-1,-2.419500053E-1,9.651000023E0,2.005050182E0
7.283547760E-1,-3.139500022E-1,9.652950287E0,2.068950176E0
7.296147760E-1,-3.000000119E-1,9.607050896E0,2.050050020E0
7.308748510E-1,-2.809500098E-1,9.607050896E0,2.056950092E0
7.321348530E-1,-2.929500043E-1,9.598050117E0,2.078999996E0
7.333948380E-1,-2.380500138E-1,9.660000801E0,2.055000067E0
7.346548380E-1,-2.929500043E-1,9.660000801E0,2.023950100E0
7.359148380E-1,-2.740500271E-1,9.655050278E0,2.074050188E0
7.371748380E-1,-2.980500162E-1,9.652950287E0,2.068950176E0
7.384348380E-1,-2.809500098E-1,9.652950287E0,2.044950008E0
7.396948380E-1,-2.659500241E-1,9.658050537E0,2.052000046E0
7.409550660E-1,-2.539499998E-1,9.640950203E0,2.031000137E0
7.422150680E-1,-2.899500132E-1,9.604950905E0,2.040000200E0
7.434750830E-1,-2.659500241E-1,9.612000465E0,2.016000032E0
7.447351580E-1,-3.190500140E-1,9.639000893E0,2.047950029E0
7.459951600E-1,-2.689500153E-1,9.591000557E0,2.064000130E0
7.472551600E-1,-2.659500241E-1,9.636000633E0,2.047950029E0
7.485151600E-1,-3.190500140E-1,9.610050201E0,2.035950184E0
7.497751600E-1,-2.520000041E-1,9.624000549E0,1.999950051E0
7.510353890E-1,-2.740500271E-1,9.576000214E0,2.008949995E0
7.522951600E-1,-3.000000119E-1,9.619050026E0,2.044950008E0
7.535553550E-1,-2.539499998E-1,9.651000023E0,2.059950113E0
7.548153570E-1,-3.070500195E-1,9.628950119E0,2.035950184E0
7.560753570E-1,-2.929500043E-1,9.628950119E0,2.050050020E0
7.573353570E-1,-2.899500132E-1,9.634050369E0,2.062050104E0
7.585954320E-1,-2.929500043E-1,9.600000381E0,2.044950008E0
7.598553570E-1,-2.880000174E-1,9.634050369E0,2.067000151E0
7.611153550E-1,-2.620500028E-1,9.634050369E0,2.032950163E0
7.623754320E-1,-2.280000150E-1,9.619050026E0,2.032950163E0
7.636354430E-1,-2.740500271E-1,9.627000809E0,2.028000116E0
7.648954430E-1,-2.639999986E-1,9.643050194E0,2.052000046E0
7.661556720E-1,-2.350500077E-1,9.636000633E0,2.047950029E0
7.674154430E-1,-2.899500132E-1,9.643050194E0,2.038050175E0
7.686756720E-1,-2.760000229E-1,9.636000633E0,2.020950079E0
7.699356740E-1,-2.539499998E-1,9.627000809E0,2.062050104E0
7.711956740E-1,-2.520000041E-1,9.628950119E0,2.042999983E0
7.724557490E-1,-3.019500077E-1,9.619050026E0,2.064000130E0
7.737156700E-1,-3.049500287E-1,9.670050621E0,2.032950163E0
7.749757450E-1,-2.449500114E-1,9.627000809E0,2.047950029E0
7.762357470E-1,-3.019500077E-1,9.628950119E0,2.035950184E0
7.774957470E-1,-2.830500007E-1,9.598050117E0,2.047950029E0
7.787557470E-1,-2.689500153E-1,9.616950035E0,2.076000214E0
7.800159760E-1,-2.760000229E-1,9.655050278E0,2.032950163E0
7.812757470E-1,-2.710500062E-1,9.610050201E0,2.055000067E0
7.825357450E-1,-3.019500077E-1,9.639000893E0,2.032950163E0
7.837959760E-1,-2.500500083E-1,9.636000633E0,2.064000130E0
7.850559780E-1,-2.779500186E-1,9.646050453E0,2.040000200E0
7.863159780E-1,-2.809500098E-1,9.607050896E0,2.074050188E0
7.875760530E-1,-2.950500250E-1,9.655050278E0,2.052000046E0
7.888359780E-1,-2.880000174E-1,9.643050194E0,2.026050091E0
7.900959760E-1,-2.860500216E-1,9.607050896E0,2.035950184E0
7.913560530E-1,-2.779500186E-1,9.631050110E0,2.019000053E0
7.926160550E-1,-2.740500271E-1,9.634050369E0,2.026050091E0
7.938762880E-1,-2.830500007E-1,9.688950539E0,2.056950092E0
7.951360600E-1,-2.419500053E-1,9.631050110E0,2.064000130E0
7.963960580E-1,-2.710500062E-1,9.595050812E0,2.032950163E0
7.976562880E-1,-2.830500007E-1,9.619050026E0,2.055000067E0
7.989162900E-1,-2.659500241E-1,9.676950455E0,2.064000130E0
8.001762900E-1,-3.000000119E-1,9.607050896E0,2.086050034E0
8.014362900E-1,-3.049500287E-1,9.636000633E0,2.047950029E0
8.026962900E-1,-2.160000056E-1,9.646050453E0,2.055000067E0
8.039563650E-1,-2.779500186E-1,9.648000717E0,2.014050007E0
8.052163670E-1,-2.809500098E-1,9.628950119E0,2.032950163E0
8.064763670E-1,-2.779500186E-1,9.627000809E0,2.062050104E0
8.077365960E-1,-3.120000064E-1,9.648000717E0,2.032950163E0
8.089965980E-1,-3.240000010E-1,9.655050278E0,2.055000067E0
8.102563670E-1,-2.929500043E-1,9.615000725E0,2.031000137E0
8.115165960E-1,-2.590500116E-1,9.607050896E0,2.032950163E0
8.127765980E-1,-2.400000095E-1,9.639000893E0,2.026050091E0
8.140366120E-1,-2.860500216E-1,9.576000214E0,2.005050182E0
8.152966120E-1,-2.620500028E-1,9.607050896E0,2.047950029E0
8.165566120E-1,-2.740500271E-1,9.651000023E0,2.091000080E0
8.178166120E-1,-3.019500077E-1,9.600000381E0,2.078999996E0
8.190766870E-1,-2.539499998E-1,9.615000725E0,2.111999989E0
8.203366890E-1,-2.620500028E-1,9.640950203E0,2.052000046E0
8.215966890E-1,-2.539499998E-1,9.612000465E0,2.076000214E0
8.228566890E-1,-2.539499998E-1,9.660000801E0,2.047950029E0
8.241166650E-1,-2.689500153E-1,9.612000465E0,2.044950008E0
8.253768940E-1,-2.520000041E-1,9.663000107E0,2.056950092E0
8.266368960E-1,-2.760000229E-1,9.664950371E0,2.044950008E0
8.278968960E-1,-3.120000064E-1,9.624000549E0,2.055000067E0
8.291568960E-1,-3.019500077E-1,9.598050117E0,2.064000130E0
8.304168960E-1,-3.169500232E-1,9.628950119E0,2.047950029E0
8.316768960E-1,-2.520000041E-1,9.603000641E0,1.984950066E0
8.329369710E-1,-3.000000119E-1,9.672000885E0,2.062050104E0
8.341969540E-1,-2.740500271E-1,9.636000633E0,2.052000046E0
8.354569540E-1,-2.929500043E-1,9.634050369E0,2.083950043E0
8.367169540E-1,-3.049500287E-1,9.610050201E0,2.067000151E0
8.379769540E-1,-2.880000174E-1,9.622050285E0,2.007000208E0
8.392369540E-1,-2.639999986E-1,9.634050369E0,2.078999996E0
8.404971820E-1,-2.639999986E-1,9.631050110E0,2.011950016E0
8.417571840E-1,-2.140500098E-1,9.634050369E0,2.059950113E0
8.430171850E-1,-2.659500241E-1,9.682050705E0,2.040000200E0
8.442771800E-1,-2.620500028E-1,9.672000885E0,2.052000046E0
8.455371800E-1,-2.569500208E-1,9.607050896E0,2.059950113E0
8.467972540E-1,-2.740500271E-1,9.658050537E0,2.055000067E0
8.480572560E-1,-2.880000174E-1,9.664950371E0,2.044950008E0
8.493172560E-1,-2.740500271E-1,9.610050201E0,2.038050175E0
8.505772560E-1,-2.899500132E-1,9.586050034E0,2.040000200E0
8.518372560E-1,-2.350500077E-1,9.583050728E0,2.019000053E0
8.530972560E-1,-2.929500043E-1,9.612000465E0,2.062050104E0
8.543574900E-1,-2.689500153E-1,9.627000809E0,2.074050188E0
8.556174920E-1,-2.740500271E-1,9.651000023E0,2.032950163E0
8.568774920E-1,-2.779500186E-1,9.646050453E0,2.055000067E0
8.581374920E-1,-3.210000098E-1,9.619050026E0,2.007000208E0
8.593974920E-1,-2.950500250E-1,9.627000809E0,2.035950184E0
8.606575670E-1,-2.590500116E-1,9.624000549E0,2.044950008E0
8.619175690E-1,-2.830500007E-1,9.600000381E0,2.074050188E0
8.631775690E-1,-2.590500116E-1,9.580950737E0,2.020950079E0
8.644375590E-1,-2.950500250E-1,9.619050026E0,2.044950008E0
8.656975590E-1,-3.019500077E-1,9.615000725E0,2.038050175E0
8.669575590E-1,-2.590500116E-1,9.634050369E0,2.055000067E0
8.682177880E-1,-3.000000119E-1,9.651000023E0,2.032950163E0
8.694777900E-1,-2.740500271E-1,9.655050278E0,2.020950079E0
8.707377900E-1,-2.980500162E-1,9.667050362E0,2.050050020E0
8.719977900E-1,-3.000000119E-1,9.648000717E0,2.011950016E0
8.732577900E-1,-2.689500153E-1,9.652950287E0,2.047950029E0
8.745178000E-1,-2.569500208E-1,9.652950287E0,2.050050020E0
8.757778750E-1,-2.449500114E-1,9.655050278E0,2.019000053E0
8.770378770E-1,-2.710500062E-1,9.648000717E0,2.074050188E0
8.782978770E-1,-3.070500195E-1,9.627000809E0,2.083950043E0
8.795578770E-1,-2.620500028E-1,9.610050201E0,2.064000130E0
8.808178770E-1,-2.569500208E-1,9.640950203E0,2.052000046E0
8.820781060E-1,-2.760000229E-1,9.667050362E0,2.040000200E0
8.833381080E-1,-2.639999986E-1,9.673950195E0,2.059950113E0
8.845980890E-1,-2.950500250E-1,9.652950287E0,1.971000075E0
8.858580890E-1,-3.310500085E-1,9.658050537E0,2.044950008E0
8.871180890E-1,-2.830500007E-1,9.660000801E0,2.059950113E0
8.883780890E-1,-2.809500098E-1,9.663000107E0,2.035950184E0
8.896381640E-1,-3.169500232E-1,9.651000023E0,2.059950113E0
8.908981660E-1,-2.760000229E-1,9.631050110E0,2.047950029E0
8.921581660E-1,-2.880000174E-1,9.655050278E0,2.092950106E0
8.934181660E-1,-2.569500208E-1,9.651000023E0,2.007000208E0
8.946781660E-1,-2.639999986E-1,9.663000107E0,1.972950101E0
8.959383940E-1,-2.740500271E-1,9.619050026E0,2.050050020E0
8.971983960E-1,-2.710500062E-1,9.660000801E0,2.032950163E0
8.984583960E-1,-2.880000174E-1,9.603000641E0,2.050050020E0
8.997183960E-1,-2.659500241E-1,9.639000893E0,2.055000067E0
9.009783960E-1,-2.620500028E-1,9.598050117E0,2.035950184E0
9.022383960E-1,-2.659500241E-1,9.646050453E0,2.091000080E0
9.034984710E-1,-2.760000229E-1,9.628950119E0,2.040000200E0
9.047584580E-1,-2.860500216E-1,9.595050812E0,2.064000130E0
9.060184580E-1,-2.860500216E-1,9.655050278E0,2.055000067E0
9.072784580E-1,-2.710500062E-1,9.604950905E0,2.042999983E0
9.085384580E-1,-2.950500250E-1,9.616950035E0,2.028000116E0
9.097984580E-1,-3.169500232E-1,9.612000465E0,2.044950008E0
9.110586870E-1,-2.449500114E-1,9.643050194E0,2.020950079E0
9.123186890E-1,-2.520000041E-1,9.580950737E0,2.052000046E0
9.135786890E-1,-2.860500216E-1,9.643050194E0,2.008949995E0
9.148387230E-1,-3.019500077E-1,9.672000885E0,1.984950066E0
9.160987230E-1,-2.760000229E-1,9.658050537E0,2.031000137E0
9.173587980E-1,-3.120000064E-1,9.636000633E0,2.068950176E0
9.186188000E-1,-3.000000119E-1,9.646050453E0,2.064000130E0
9.198788000E-1,-2.980500162E-1,9.646050453E0,2.062050104E0
9.211388000E-1,-2.929500043E-1,9.607050896E0,2.055000067E0
9.223988000E-1,-2.470500171E-1,9.660000801E0,2.078999996E0
9.236588000E-1,-2.689500153E-1,9.651000023E0,2.047950029E0
9.249190090E-1,-3.169500232E-1,9.603000641E0,2.071950197E0
9.261790110E-1,-2.899500132E-1,9.598050117E0,2.071950197E0
9.274390110E-1,-3.169500232E-1,9.634050369E0,2.050050020E0
9.286990110E-1,-3.190500140E-1,9.655050278E0,2.020950079E0
9.299590110E-1,-3.409500122E-1,9.628950119E0,2.052000046E0
9.312190860E-1,-3.049500287E-1,9.643050194E0,2.032950163E0
9.324790880E-1,-3.139500022E-1,9.598050117E0,2.038050175E0
9.337390880E-1,-2.740500271E-1,9.628950119E0,2.050050020E0
9.349990880E-1,-2.230500132E-1,9.664950371E0,2.032950163E0
9.362590880E-1,-2.760000229E-1,9.631050110E0,2.111999989E0
9.375190880E-1,-2.860500216E-1,9.612000465E0,2.031000137E0
9.387793170E-1,-3.409500122E-1,9.655050278E0,2.035950184E0
9.400393190E-1,-2.929500043E-1,9.600000381E0,2.044950008E0
9.412993190E-1,-2.980500162E-1,9.627000809E0,2.052000046E0
9.425593190E-1,-2.710500062E-1,9.592950821E0,2.047950029E0
9.438193190E-1,-3.090000153E-1,9.639000893E0,2.031000137E0
9.450793990E-1,-2.980500162E-1,9.628950119E0,1.999950051E0
9.463394010E-1,-2.980500162E-1,9.598050117E0,2.023950100E0
9.475994010E-1,-2.929500043E-1,9.568950653E0,2.080950022E0
9.488594010E-1,-2.809500098E-1,9.648000717E0,2.062050104E0
9.501194010E-1,-3.049500287E-1,9.639000893E0,2.059950113E0
9.513794010E-1,-2.590500116E-1,9.663000107E0,2.028000116E0
9.526394010E-1,-2.950500250E-1,9.627000809E0,2.047950029E0
9.538996290E-1,-2.659500241E-1,9.568950653E0,2.047950029E0
9.551596120E-1,-2.470500171E-1,9.639000893E0,2.035950184E0
9.564196120E-1,-2.809500098E-1,9.622050285E0,2.011950016E0
9.576796120E-1,-2.639999986E-1,9.610050201E0,2.071950197E0
9.589396120E-1,-2.809500098E-1,9.640950203E0,2.007000208E0
9.601996870E-1,-3.139500022E-1,9.663000107E0,2.062050104E0
9.614596890E-1,-2.740500271E-1,9.628950119E0,2.016000032E0
9.627196890E-1,-2.950500250E-1,9.607050896E0,2.020950079E0
9.639796890E-1,-3.049500287E-1,9.615000725E0,1.972950101E0
9.652396740E-1,-3.120000064E-1,9.670050621E0,2.076000214E0
9.664999030E-1,-2.760000229E-1,9.679050446E0,2.067000151E0
9.677599050E-1,-2.569500208E-1,9.651000023E0,2.055000067E0
9.690196740E-1,-2.809500098E-1,9.655050278E0,2.078999996E0
9.702799030E-1,-2.620500028E-1,9.643050194E0,2.038050175E0
9.715399050E-1,-3.139500022E-1,9.622050285E0,2.047950029E0
9.727999050E-1,-2.880000174E-1,9.679050446E0,2.059950113E0
9.740599800E-1,-2.500500083E-1,9.663000107E0,2.092950106E0
9.753199490E-1,-2.950500250E-1,9.631050110E0,2.064000130E0
9.765799490E-1,-2.350500077E-1,9.631050110E0,2.028000116E0
9.778399490E-1,-2.620500028E-1,9.648000717E0,2.056950092E0
9.790999490E-1,-2.950500250E-1,9.676950455E0,2.044950008E0
9.803601780E-1,-2.980500162E-1,9.634050369E0,2.008949995E0
9.816201800E-1,-3.139500022E-1,9.636000633E0,2.047950029E0
9.828801800E-1,-3.139500022E-1,9.631050110E0,2.074050188E0
9.841401800E-1,-2.620500028E-1,9.624000549E0,2.019000053E0
9.854002040E-1,-2.639999986E-1,9.640950203E0,2.056950092E0
9.866602040E-1,-2.620500028E-1,9.598050117E0,2.074050188E0
9.879202790E-1,-2.569500208E-1,9.636000633E0,2.044950008E0
9.891802810E-1,-2.419500053E-1,9.648000717E0,2.080950022E0
9.904402040E-1,-2.830500007E-1,9.652950287E0,2.032950163E0
9.917002790E-1,-3.120000064E-1,9.624000549E0,2.052000046E0
9.929602810E-1,-3.240000010E-1,9.588000298E0,2.059950113E0
9.942202810E-1,-2.929500043E-1,9.628950119E0,2.032950163E0
9.954805230E-1,-2.809500098E-1,9.643050194E0,2.019000053E0
9.967405250E-1,-2.860500216E-1,9.598050117E0,2.026050091E0
9.980005250E-1,-2.639999986E-1,9.607050896E0,2.038050175E0
9.992605250E-1,-2.809500098E-1,9.628950119E0,2.050050020E0
1.000520525E0,-2.569500208E-1,9.651000023E0,2.068950176E0
1.001780525E0,-2.329500169E-1,9.591000557E0,2.032950163E0
1.003040600E0,-2.809500098E-1,9.639000893E0,2.095950127E0
1.004300602E0,-3.190500140E-1,9.643050194E0,2.050050020E0
1.005560636E0,-2.419500053E-1,9.622050285E0,2.055000067E0
1.006820636E0,-2.740500271E-1,9.640950203E0,2.032950163E0
1.008080636E0,-2.659500241E-1,9.624000549E0,2.031000137E0
1.009340865E0,-2.689500153E-1,9.652950287E0,2.104950190E0
1.010600867E0,-2.880000174E-1,9.612000465E0,2.076000214E0
1.011860636E0,-2.929500043E-1,9.615000725E0,2.040000200E0
1.013120865E0,-2.740500271E-1,9.640950203E0,2.028000116E0
1.014380867E0,-3.070500195E-1,9.603000641E0,1.971000075E0
1.015640852E0,-2.689500153E-1,9.648000717E0,2.044950008E0
1.016900927E0,-2.569500208E-1,9.631050110E0,2.100000143E0
1.018160929E0,-2.639999986E-1,9.648000717E0,2.076000214E0
1.019420929E0,-2.779500186E-1,9.664950371E0,2.014050007E0
1.020680929E0,-2.929500043E-1,9.607050896E0,2.031000137E0
1.021940929E0,-2.760000229E-1,9.612000465E0,2.052000046E0
1.023200929E0,-2.329500169E-1,9.612000465E0,2.040000200E0
1.024460929E0,-2.689500153E-1,9.648000717E0,1.995000124E0
1.025721182E0,-2.419500053E-1,9.634050369E0,2.067000151E0
1.026981184E0,-2.419500053E-1,9.619050026E0,2.023950100E0
1.028241184E0,-3.019500077E-1,9.636000633E0,2.014050007E0
1.029501184E0,-2.740500271E-1,9.616950035E0,2.031000137E0
1.030761184E0,-2.899500132E-1,9.592950821E0,2.052000046E0
1.032021259E0,-2.779500186E-1,9.636000633E0,2.032950163E0
1.033281261E0,-2.620500028E-1,9.595050812E0,2.040000200E0
1.034541261E0,-2.929500043E-1,9.598050117E0,2.088000059E0
1.035801271E0,-2.929500043E-1,9.643050194E0,2.086050034E0
1.037061271E0,-2.710500062E-1,9.682050705E0,2.067000151E0
1.038321500E0,-3.000000119E-1,9.603000641E0,2.023950100E0
1.039581271E0,-3.210000098E-1,9.673950195E0,2.086050034E0
1.040841500E0,-2.639999986E-1,9.667050362E0,2.038050175E0
1.042101502E0,-2.659500241E-1,9.672000885E0,1.996950150E0
1.043361502E0,-3.190500140E-1,9.610050201E0,2.002050161E0
1.044621502E0,-2.710500062E-1,9.595050812E0,2.007000208E0
1.045881511E0,-2.950500250E-1,9.663000107E0,2.042999983E0
1.047141511E0,-3.000000119E-1,9.634050369E0,2.026050091E0
1.048401586E0,-2.929500043E-1,9.646050453E0,2.078999996E0
1.049661588E0,-2.809500098E-1,9.636000633E0,2.056950092E0
1.050921588E0,-2.899500132E-1,9.624000549E0,2.038050175E0
1.052181588E0,-2.710500062E-1,9.670050621E0,2.032950163E0
1.053441816E0,-2.590500116E-1,9.631050110E0,2.020950079E0
1.054701818E0,-3.169500232E-1,9.628950119E0,2.050050020E0
1.055961809E0,-3.070500195E-1,9.604950905E0,2.095950127E0
1.057221809E0,-2.350500077E-1,9.664950371E0,2.044950008E0
1.058481809E0,-2.880000174E-1,9.667050362E0,2.052000046E0
1.059741884E0,-3.070500195E-1,9.652950287E0,2.068950176E0
1.061001809E0,-2.809500098E-1,9.655050278E0,2.014050007E0
1.062261884E0,-2.860500216E-1,9.588000298E0,2.074050188E0
1.063521886E0,-2.929500043E-1,9.598050117E0,2.019000053E0
1.064781886E0,-2.830500007E-1,9.595050812E0,2.080950022E0
1.066042124E0,-3.049500287E-1,9.634050369E0,2.056950092E0
1.067301895E0,-2.689500153E-1,9.682050705E0,2.023950100E0
1.068561893E0,-2.449500114E-1,9.627000809E0,2.080950022E0
1.069822124E0,-2.500500083E-1,9.627000809E0,2.040000200E0
1.071082126E0,-2.500500083E-1,9.672000885E0,2.038050175E0
1.072342126E0,-2.880000174E-1,9.676950455E0,2.067000151E0
1.073602126E0,-3.139500022E-1,9.619050026E0,2.038050175E0
1.074862126E0,-3.070500195E-1,9.619050026E0,2.038050175E0
1.076122206E0,-2.740500271E-1,9.591000557E0,1.993050098E0
1.077382208E0,-2.539499998E-1,9.610050201E0,2.028000116E0
1.078642208E0,-2.929500043E-1,9.631050110E0,2.080950022E0
1.079902208E0,-2.659500241E-1,9.643050194E0,2.008949995E0
1.081162437E0,-2.299500108E-1,9.627000809E0,2.019000053E0
1.082422439E0,-2.569500208E-1,9.663000107E0,2.056950092E0
1.083682439E0,-2.899500132E-1,9.622050285E0,2.086050034E0
1.084942439E0,-2.760000229E-1,9.600000381E0,2.038050175E0
1.086202453E0,-2.950500250E-1,9.636000633E0,2.042999983E0
1.087462528E0,-2.929500043E-1,9.652950287E0,2.020950079E0
1.088722453E0,-2.830500007E-1,9.631050110E0,2.068950176E0
1.089982528E0,-2.760000229E-1,9.627000809E0,2.042999983E0
1.091242530E0,-3.360000253E-1,9.610050201E0,2.042999983E0
1.092502530E0,-2.980500162E-1,9.655050278E0,2.023950100E0
1.093762530E0,-3.049500287E-1,9.598050117E0,2.068950176E0
1.095022530E0,-2.659500241E-1,9.651000023E0,2.040000200E0
1.096282526E0,-2.899500132E-1,9.612000465E0,1.983000040E0
1.097542755E0,-2.419500053E-1,9.660000801E0,2.040000200E0
1.098802757E0,-2.639999986E-1,9.685950279E0,2.042999983E0
1.100062757E0,-3.019500077E-1,9.682050705E0,2.055000067E0
1.101322757E0,-2.779500186E-1,9.646050453E0,2.020950079E0
1.102582757E0,-2.590500116E-1,9.655050278E0,2.032950163E0
1.103842832E0,-2.809500098E-1,9.604950905E0,2.071950197E0
1.105102834E0,-2.779500186E-1,9.651000023E0,2.023950100E0
1.106362834E0,-2.860500216E-1,9.631050110E0,2.091000080E0
1.107622838E0,-2.590500116E-1,9.651000023E0,2.052000046E0
1.108882838E0,-2.809500098E-1,9.624000549E0,2.071950197E0
1.110142838E0,-3.190500140E-1,9.604950905E0,1.981050134E0
1.111403066E0,-2.760000229E-1,9.667050362E0,2.016000032E0
1.112663068E0,-2.470500171E-1,9.627000809E0,1.984950066E0
1.113923068E0,-2.659500241E-1,9.652950287E0,2.067000151E0
1.115183068E0,-2.760000229E-1,9.648000717E0,2.050050020E0
1.116443068E0,-2.809500098E-1,9.616950035E0,2.100000143E0
1.117703147E0,-2.639999986E-1,9.622050285E0,2.076000214E0
1.118963149E0,-2.830500007E-1,9.646050453E0,2.026050091E0
1.120223149E0,-2.539499998E-1,9.622050285E0,2.035950184E0
1.121483149E0,-3.000000119E-1,9.612000465E0,2.005050182E0
1.122743149E0,-2.419500053E-1,9.612000465E0,2.050050020E0
1.124003149E0,-2.569500208E-1,9.616950035E0,2.002050161E0
1.125263378E0,-2.950500250E-1,9.591000557E0,2.042999983E0
1.126523380E0,-2.620500028E-1,9.615000725E0,2.023950100E0
1.127783372E0,-2.539499998E-1,9.615000725E0,2.035950184E0
1.129043372E0,-3.090000153E-1,9.592950821E0,2.059950113E0
1.130303372E0,-2.830500007E-1,9.627000809E0,2.059950113E0
1.131563447E0,-2.929500043E-1,9.586050034E0,2.011950016E0
1.132823449E0,-2.569500208E-1,9.646050453E0,1.996950150E0
1.134083449E0,-2.779500186E-1,9.652950287E0,2.028000116E0
1.135343449E0,-3.049500287E-1,9.673950195E0,2.059950113E0
1.136603449E0,-2.620500028E-1,9.684000015E0,2.067000151E0
1.137863481E0,-2.860500216E-1,9.643050194E0,2.014050007E0
1.139123710E0,-3.360000253E-1,9.627000809E0,2.007000208E0
1.140383712E0,-2.980500162E-1,9.622050285E0,2.047950029E0
1.141643712E0,-2.329500169E-1,9.604950905E0,2.032950163E0
1.142903712E0,-2.880000174E-1,9.595050812E0,2.038050175E0
1.144163712E0,-2.470500171E-1,9.691050529E0,2.020950079E0
1.145423712E0,-2.809500098E-1,9.595050812E0,2.038050175E0
1.146683787E0,-3.210000098E-1,9.592950821E0,2.076000214E0
1.147943780E0,-2.569500208E-1,9.622050285E0,2.050050020E0
1.149203780E0,-3.090000153E-1,9.631050110E0,2.067000151E0
1.150463780E0,-2.779500186E-1,9.588000298E0,2.042999983E0
1.151723780E0,-2.470500171E-1,9.673950195E0,2.028000116E0
1.152984008E0,-2.779500186E-1,9.636000633E0,2.056950092E0
1.154244010E0,-2.809500098E-1,9.652950287E0,2.062050104E0
1.155504010E0,-3.070500195E-1,9.679050446E0,2.044950008E0
1.156764010E0,-2.779500186E-1,9.624000549E0,2.068950176E0
1.158024010E0,-2.929500043E-1,9.673950195E0,2.032950163E0
1.159284010E0,-2.539499998E-1,9.648000717E0,2.014050007E0
1.160544085E0,-2.419500053E-1,9.610050201E0,2.068950176E0
1.161804087E0,-2.779500186E-1,9.636000633E0,2.056950092E0
1.163064087E0,-3.000000119E-1,9.646050453E0,2.035950184E0
1.164324087E0,-3.019500077E-1,9.652950287E0,2.044950008E0
1.165584087E0,-2.520000041E-1,9.640950203E0,2.035950184E0
1.166844087E0,-2.620500028E-1,9.660000801E0,2.071950197E0
1.168104283E0,-2.470500171E-1,9.600000381E0,2.040000200E0
1.169364285E0,-2.620500028E-1,9.639000893E0,2.044950008E0
1.170624285E0,-2.470500171E-1,9.655050278E0,2.002050161E0
1.171884285E0,-2.740500271E-1,9.651000023E0,2.032950163E0
1.173144285E0,-2.830500007E-1,9.639000893E0,2.040000200E0
1.174404360E0,-2.569500208E-1,9.586050034E0,2.055000067E0
1.175664362E0,-2.809500098E-1,9.616950035E0,2.008949995E0
1.176924362E0,-2.620500028E-1,9.619050026E0,2.011950016E0
1.178184376E0,-2.380500138E-1,9.634050369E0,2.019000053E0
1.179444376E0,-2.860500216E-1,9.604950905E0,2.071950197E0
1.180704376E0,-2.710500062E-1,9.640950203E0,2.095950127E0
1.181964605E0,-2.760000229E-1,9.676950455E0,2.091000080E0
1.183224607E0,-2.590500116E-1,9.672000885E0,1.983000040E0
1.184484607E0,-3.070500195E-1,9.664950371E0,2.032950163E0
1.185744607E0,-2.329500169E-1,9.588000298E0,2.038050175E0
1.187004607E0,-2.569500208E-1,9.580950737E0,2.064000130E0
1.188264673E0,-2.569500208E-1,9.624000549E0,2.078999996E0
1.189524675E0,-3.240000010E-1,9.600000381E0,2.056950092E0
1.190784675E0,-3.019500077E-1,9.639000893E0,2.028000116E0
1.192044675E0,-2.500500083E-1,9.646050453E0,2.011950016E0
1.193304675E0,-3.000000119E-1,9.643050194E0,2.068950176E0
1.194564675E0,-2.449500114E-1,9.634050369E0,2.080950022E0
1.195824904E0,-2.659500241E-1,9.612000465E0,2.062050104E0
1.197084906E0,-3.019500077E-1,9.634050369E0,2.016000032E0
1.198344887E0,-2.500500083E-1,9.658050537E0,2.005050182E0
1.199604887E0,-2.830500007E-1,9.655050278E0,1.987950087E0
1.200864887E0,-2.830500007E-1,9.604950905E0,2.031000137E0
1.202124887E0,-2.950500250E-1,9.607050896E0,2.078999996E0
1.203384887E0,-3.120000064E-1,9.616950035E0,2.047950029E0
1.204644962E0,-3.139500022E-1,9.648000717E0,2.019000053E0
1.205904964E0,-3.090000153E-1,9.676950455E0,1.996950150E0
1.207164964E0,-2.449500114E-1,9.612000465E0,2.040000200E0
1.208424968E0,-3.019500077E-1,9.646050453E0,1.995000124E0
1.209685196E0,-2.659500241E-1,9.664950371E0,2.064000130E0
1.210945198E0,-3.000000119E-1,9.610050201E0,2.086050034E0
1.212205198E0,-2.639999986E-1,9.667050362E0,2.040000200E0
1.213465198E0,-3.120000064E-1,9.643050194E0,2.064000130E0
1.214725198E0,-2.860500216E-1,9.616950035E0,2.023950100E0
1.215985273E0,-2.620500028E-1,9.603000641E0,2.038050175E0
1.217245275E0,-2.880000174E-1,9.643050194E0,2.110050201E0
1.218505270E0,-2.449500114E-1,9.624000549E0,2.044950008E0
1.219765270E0,-2.860500216E-1,9.646050453E0,2.028000116E0
1.221025270E0,-2.809500098E-1,9.658050537E0,2.026050091E0
1.222285270E0,-2.020500153E-1,9.628950119E0,2.059950113E0
1.223545499E0,-2.760000229E-1,9.648000717E0,2.059950113E0
1.224805270E0,-2.830500007E-1,9.631050110E0,2.031000137E0
1.226065499E0,-2.899500132E-1,9.627000809E0,1.981050134E0
1.227325501E0,-2.760000229E-1,9.648000717E0,2.047950029E0
1.228585492E0,-2.760000229E-1,9.595050812E0,2.031000137E0
1.229845567E0,-2.659500241E-1,9.636000633E0,2.078999996E0
1.231105492E0,-2.880000174E-1,9.658050537E0,2.052000046E0
1.232365567E0,-2.590500116E-1,9.655050278E0,2.052000046E0
1.233625569E0,-2.500500083E-1,9.684000015E0,2.086050034E0
1.234885569E0,-2.710500062E-1,9.658050537E0,2.038050175E0
1.236145569E0,-2.400000095E-1,9.592950821E0,2.008949995E0
1.237405798E0,-2.520000041E-1,9.567000389E0,2.044950008E0
1.238665781E0,-2.659500241E-1,9.640950203E0,2.088000059E0
1.239925781E0,-2.710500062E-1,9.615000725E0,2.078999996E0
1.241185781E0,-2.929500043E-1,9.624000549E0,2.056950092E0
1.242445781E0,-2.830500007E-1,9.634050369E0,2.020950079E0
1.243705781E0,-2.830500007E-1,9.600000381E0,2.044950008E0
1.244965856E0,-2.380500138E-1,9.622050285E0,2.086050034E0
1.246225781E0,-2.689500153E-1,9.651000023E0,2.023950100E0
1.247485856E0,-2.779500186E-1,9.643050194E0,2.052000046E0
1.248745834E0,-2.470500171E-1,9.697950363E0,2.040000200E0
1.250005834E0,-2.710500062E-1,9.615000725E0,2.071950197E0
1.251266063E0,-2.809500098E-1,9.636000633E0,2.062050104E0
1.252525834E0,-2.639999986E-1,9.670050621E0,2.115000010E0
1.253786063E0,-2.980500162E-1,9.627000809E0,2.014050007E0
1.255046065E0,-2.880000174E-1,9.655050278E0,2.047950029E0
1.256306065E0,-2.449500114E-1,9.634050369E0,2.062050104E0
1.257566065E0,-2.449500114E-1,9.610050201E0,2.044950008E0
1.258826074E0,-2.639999986E-1,9.627000809E0,2.086050034E0
1.260086148E0,-2.880000174E-1,9.603000641E0,2.086050034E0
1.261346151E0,-2.760000229E-1,9.640950203E0,2.071950197E0
1.262606151E0,-2.500500083E-1,9.652950287E0,2.067000151E0
1.263866151E0,-2.710500062E-1,9.655050278E0,2.056950092E0
1.265126151E0,-2.160000056E-1,9.658050537E0,2.040000200E0
1.266386379E0,-2.740500271E-1,9.604950905E0,2.047950029E0
1.267646151E0,-3.210000098E-1,9.604950905E0,2.062050104E0
1.268906370E0,-3.210000098E-1,9.672000885E0,2.042999983E0
1.270166372E0,-2.760000229E-1,9.615000725E0,2.031000137E0
1.271426372E0,-3.070500195E-1,9.660000801E0,2.020950079E0
1.272686447E0,-2.809500098E-1,9.634050369E0,2.055000067E0
1.273946372E0,-2.899500132E-1,9.655050278E0,2.016000032E0
1.275206370E0,-2.809500098E-1,9.646050453E0,2.023950100E0
1.276466447E0,-2.569500208E-1,9.616950035E0,2.028000116E0
1.277726449E0,-2.449500114E-1,9.610050201E0,2.056950092E0
1.278986453E0,-2.740500271E-1,9.652950287E0,2.042999983E0
1.280246453E0,-2.899500132E-1,9.685950279E0,2.031000137E0
1.281506453E0,-3.049500287E-1,9.624000549E0,2.059950113E0
1.282766682E0,-2.740500271E-1,9.579000473E0,2.083950043E0
1.284026684E0,-3.169500232E-1,9.640950203E0,2.080950022E0
1.285286684E0,-3.019500077E-1,9.631050110E0,2.044950008E0
1.286546684E0,-2.470500171E-1,9.628950119E0,2.056950092E0
1.287806759E0,-2.590500116E-1,9.655050278E0,1.987950087E0
1.289066680E0,-2.639999986E-1,9.628950119E0,2.007000208E0
1.290326755E0,-3.019500077E-1,9.672000885E0,2.014050007E0
1.291586757E0,-3.019500077E-1,9.658050537E0,2.078999996E0
1.292846757E0,-2.470500171E-1,9.591000557E0,2.071950197E0
1.294106986E0,-2.400000095E-1,9.640950203E0,2.068950176E0
1.295366757E0,-2.779500186E-1,9.622050285E0,2.059950113E0
1.296626755E0,-2.449500114E-1,9.660000801E0,2.086050034E0
1.297886986E0,-2.860500216E-1,9.627000809E0,2.026050091E0
1.299146973E0,-2.620500028E-1,9.616950035E0,2.047950029E0
1.300407048E0,-2.569500208E-1,9.615000725E0,2.068950176E0
1.301666973E0,-3.000000119E-1,9.663000107E0,2.019000053E0
1.302926971E0,-2.779500186E-1,9.592950821E0,2.050050020E0
1.304187048E0,-2.620500028E-1,9.603000641E0,2.016000032E0
1.305447050E0,-2.860500216E-1,9.679050446E0,2.040000200E0
1.306707050E0,-3.190500140E-1,9.660000801E0,2.050050020E0
1.307967050E0,-3.190500140E-1,9.640950203E0,1.999950051E0
1.309227055E0,-2.710500062E-1,9.624000549E0,2.028000116E0
1.310487283E0,-2.809500098E-1,9.588000298E0,2.092950106E0
1.311747285E0,-2.520000041E-1,9.643050194E0,2.062050104E0
1.313007285E0,-2.500500083E-1,9.610050201E0,2.074050188E0
1.314267285E0,-2.899500132E-1,9.634050369E0,2.080950022E0
1.315527360E0,-2.590500116E-1,9.634050369E0,2.064000130E0
1.316787285E0,-2.860500216E-1,9.615000725E0,2.059950113E0
1.318047283E0,-3.169500232E-1,9.664950371E0,2.020950079E0
1.319307345E0,-3.480000198E-1,9.622050285E0,2.067000151E0
1.320567347E0,-2.809500098E-1,9.607050896E0,2.042999983E0
1.321827347E0,-3.120000064E-1,9.636000633E0,2.042999983E0
1.323087347E0,-2.380500138E-1,9.648000717E0,2.083950043E0
1.324347347E0,-2.620500028E-1,9.673950195E0,2.059950113E0
1.325607576E0,-3.139500022E-1,9.627000809E0,2.023950100E0
1.326867578E0,-2.980500162E-1,9.607050896E0,2.064000130E0
1.328127578E0,-2.899500132E-1,9.631050110E0,2.095950127E0
1.329387578E0,-3.330000043E-1,9.600000381E0,2.042999983E0
1.330647578E0,-2.809500098E-1,9.603000641E0,2.056950092E0
1.331907653E0,-2.500500083E-1,9.612000465E0,2.056950092E0
1.333167655E0,-2.860500216E-1,9.655050278E0,2.059950113E0
1.334427655E0,-2.830500007E-1,9.655050278E0,2.050050020E0
1.335687655E0,-2.639999986E-1,9.667050362E0,2.047950029E0
1.336947655E0,-2.569500208E-1,9.624000549E0,2.040000200E0
1.338207655E0,-2.809500098E-1,9.622050285E0,2.095950127E0
1.339467850E0,-3.070500195E-1,9.619050026E0,2.071950197E0
1.340727852E0,-2.659500241E-1,9.616950035E0,2.038050175E0
1.341987852E0,-3.019500077E-1,9.648000717E0,2.080950022E0
1.343247852E0,-2.929500043E-1,9.640950203E0,2.038050175E0
1.344507852E0,-2.830500007E-1,9.600000381E0,2.047950029E0
1.345767852E0,-2.419500053E-1,9.624000549E0,2.052000046E0
1.347027927E0,-2.659500241E-1,9.640950203E0,2.071950197E0
1.348287929E0,-2.860500216E-1,9.624000549E0,2.083950043E0
1.349547919E0,-3.049500287E-1,9.598050117E0,2.035950184E0
1.350807919E0,-2.830500007E-1,9.663000107E0,2.056950092E0
1.352067919E0,-2.590500116E-1,9.615000725E0,2.031000137E0
1.353327919E0,-3.019500077E-1,9.612000465E0,2.059950113E0
1.354588148E0,-3.019500077E-1,9.646050453E0,2.026050091E0
1.355848150E0,-2.980500162E-1,9.639000893E0,2.040000200E0
1.357108150E0,-2.689500153E-1,9.648000717E0,2.074050188E0
1.358368150E0,-2.639999986E-1,9.664950371E0,2.007000208E0
1.359628184E0,-2.740500271E-1,9.610050201E0,2.056950092E0
1.360888259E0,-2.760000229E-1,9.595050812E0,2.088000059E0
1.362148261E0,-3.049500287E-1,9.640950203E0,2.032950163E0
1.363408261E0,-2.659500241E-1,9.610050201E0,2.019000053E0
1.364668261E0,-2.860500216E-1,9.631050110E0,2.088000059E0
1.365928261E0,-2.160000056E-1,9.646050453E0,2.068950176E0
1.367188261E0,-2.760000229E-1,9.622050285E0,2.032950163E0
1.368448489E0,-2.860500216E-1,9.622050285E0,2.038050175E0
1.369708486E0,-2.689500153E-1,9.651000023E0,2.040000200E0
1.370968486E0,-2.590500116E-1,9.615000725E0,2.103000164E0
1.372228486E0,-2.449500114E-1,9.658050537E0,2.064000130E0
1.373488486E0,-2.950500250E-1,9.658050537E0,2.016000032E0
1.374748561E0,-3.049500287E-1,9.691050529E0,2.088000059E0
1.376008563E0,-2.779500186E-1,9.619050026E0,2.067000151E0
1.377268563E0,-3.379500210E-1,9.648000717E0,2.038050175E0
1.378528563E0,-3.169500232E-1,9.631050110E0,2.008949995E0
1.379788563E0,-2.809500098E-1,9.636000633E0,2.040000200E0
1.381048563E0,-2.740500271E-1,9.604950905E0,2.067000151E0
1.382308792E0,-2.569500208E-1,9.619050026E0,2.026050091E0
1.383568794E0,-2.639999986E-1,9.667050362E0,2.020950079E0
1.384828794E0,-2.880000174E-1,9.651000023E0,2.098050117E0
1.386088794E0,-2.639999986E-1,9.639000893E0,2.016000032E0
1.387348794E0,-2.689500153E-1,9.607050896E0,2.052000046E0
1.388608794E0,-2.689500153E-1,9.651000023E0,2.008949995E0
1.389868854E0,-2.779500186E-1,9.646050453E0,2.032950163E0
1.391128856E0,-2.899500132E-1,9.595050812E0,2.016000032E0
1.392388856E0,-2.520000041E-1,9.607050896E0,1.971000075E0
1.393648856E0,-2.779500186E-1,9.616950035E0,2.002050161E0
1.394908856E0,-2.950500250E-1,9.567000389E0,2.050050020E0
1.396169085E0,-2.830500007E-1,9.604950905E0,2.062050104E0
1.397429087E0,-2.449500114E-1,9.628950119E0,2.100000143E0
1.398689087E0,-2.620500028E-1,9.616950035E0,2.092950106E0
1.399949092E0,-2.809500098E-1,9.655050278E0,2.052000046E0
1.401209092E0,-2.860500216E-1,9.576000214E0,2.007000208E0
1.402469092E0,-2.779500186E-1,9.628950119E0,2.068950176E0
1.403729167E0,-2.569500208E-1,9.615000725E0,2.019000053E0
1.404989169E0,-2.950500250E-1,9.627000809E0,2.035950184E0
1.406249169E0,-2.880000174E-1,9.634050369E0,2.059950113E0
1.407509169E0,-2.520000041E-1,9.579000473E0,2.042999983E0
1.408769169E0,-3.070500195E-1,9.616950035E0,2.044950008E0
1.410029398E0,-2.779500186E-1,9.652950287E0,2.074050188E0
1.411289400E0,-3.090000153E-1,9.628950119E0,2.067000151E0
1.412549400E0,-3.190500140E-1,9.588000298E0,2.067000151E0
1.413809400E0,-2.760000229E-1,9.622050285E0,2.064000130E0
1.415069400E0,-2.659500241E-1,9.615000725E0,2.056950092E0
1.416329400E0,-2.689500153E-1,9.643050194E0,2.064000130E0
1.417589474E0,-2.710500062E-1,9.583050728E0,2.059950113E0
1.418849476E0,-2.569500208E-1,9.603000641E0,2.005050182E0
1.420109466E0,-2.760000229E-1,9.679050446E0,2.019000053E0
1.421369466E0,-2.950500250E-1,9.624000549E0,2.038050175E0
1.422629467E0,-3.019500077E-1,9.639000893E0,2.035950184E0
1.423889467E0,-2.569500208E-1,9.639000893E0,1.957050085E0
1.425149695E0,-3.000000119E-1,9.672000885E0,2.002050161E0
1.426409697E0,-2.779500186E-1,9.624000549E0,2.067000151E0
1.427669697E0,-2.659500241E-1,9.676950455E0,2.044950008E0
1.428929697E0,-3.049500287E-1,9.598050117E0,2.071950197E0
1.430189697E0,-2.689500153E-1,9.628950119E0,2.032950163E0
1.431449772E0,-3.289500177E-1,9.592950821E0,2.086050034E0
1.432709774E0,-2.899500132E-1,9.619050026E0,2.042999983E0
1.433969774E0,-2.620500028E-1,9.622050285E0,2.038050175E0
1.435229774E0,-2.639999986E-1,9.634050369E0,2.056950092E0
1.436489774E0,-2.639999986E-1,9.619050026E0,2.059950113E0
1.437749774E0,-3.019500077E-1,9.651000023E0,2.031000137E0
1.439010003E0,-2.950500250E-1,9.591000557E0,2.044950008E0
1.440270005E0,-2.899500132E-1,9.648000717E0,2.023950100E0
1.441530005E0,-2.659500241E-1,9.612000465E0,2.031000137E0
1.442790005E0,-2.860500216E-1,9.652950287E0,2.050050020E0
1.444050005E0,-3.049500287E-1,9.636000633E0,2.007000208E0
1.445310005E0,-2.470500171E-1,9.658050537E0,2.067000151E0
1.446570080E0,-2.710500062E-1,9.624000549E0,2.055000067E0
1.447830082E0,-2.860500216E-1,9.598050117E0,2.074050188E0
1.449090082E0,-2.659500241E-1,9.631050110E0,2.040000200E0
1.450350082E0,-2.569500208E-1,9.676950455E0,2.040000200E0
1.451610082E0,-2.569500208E-1,9.600000381E0,2.042999983E0
1.452870311E0,-3.169500232E-1,9.624000549E0,2.014050007E0
1.454130082E0,-3.049500287E-1,9.619050026E0,2.047950029E0
1.455390311E0,-2.569500208E-1,9.612000465E0,2.062050104E0
1.456650313E0,-2.830500007E-1,9.628950119E0,2.076000214E0
1.457910313E0,-2.659500241E-1,9.612000465E0,2.092950106E0
1.459170313E0,-3.000000119E-1,9.634050369E0,2.083950043E0
1.460430388E0,-2.710500062E-1,9.646050453E0,2.064000130E0
1.461690390E0,-2.860500216E-1,9.643050194E0,2.044950008E0
1.462950390E0,-2.710500062E-1,9.634050369E0,2.055000067E0
1.464210390E0,-2.740500271E-1,9.663000107E0,2.047950029E0
1.465470390E0,-2.950500250E-1,9.603000641E0,2.083950043E0
1.466730618E0,-2.659500241E-1,9.670050621E0,2.040000200E0
1.467990620E0,-2.760000229E-1,9.591000557E0,2.047950029E0
1.469250620E0,-2.980500162E-1,9.580950737E0,2.050050020E0
1.470510616E0,-2.500500083E-1,9.651000023E0,2.031000137E0
1.471770616E0,-2.880000174E-1,9.607050896E0,2.059950113E0
1.473030616E0,-3.190500140E-1,9.622050285E0,2.038050175E0
1.474290691E0,-2.659500241E-1,9.622050285E0,2.067000151E0
1.475550616E0,-2.470500171E-1,9.576000214E0,2.026050091E0
1.476810614E0,-2.470500171E-1,9.598050117E0,2.019000053E0
1.478070691E0,-2.689500153E-1,9.628950119E0,2.016000032E0
1.479330693E0,-2.779500186E-1,9.651000023E0,2.031000137E0
1.480590931E0,-2.659500241E-1,9.615000725E0,2.062050104E0
1.481850933E0,-2.980500162E-1,9.667050362E0,2.059950113E0
1.483110933E0,-3.139500022E-1,9.592950821E0,2.095950127E0
1.484370933E0,-2.899500132E-1,9.664950371E0,2.080950022E0
1.485630933E0,-2.830500007E-1,9.639000893E0,2.031000137E0
1.486890933E0,-3.070500195E-1,9.648000717E0,2.050050020E0
1.488151008E0,-3.019500077E-1,9.663000107E0,2.052000046E0
1.489411010E0,-2.590500116E-1,9.616950035E0,2.007000208E0
1.490671029E0,-2.809500098E-1,9.588000298E0,2.042999983E0
1.491931029E0,-2.950500250E-1,9.672000885E0,2.098050117E0
1.493191029E0,-2.779500186E-1,9.631050110E0,2.055000067E0
1.494451029E0,-2.659500241E-1,9.652950287E0,2.064000130E0
1.495711258E0,-2.950500250E-1,9.660000801E0,2.076000214E0
1.496971029E0,-2.710500062E-1,9.658050537E0,2.052000046E0
1.498231258E0,-2.809500098E-1,9.655050278E0,2.071950197E0
1.499491260E0,-2.929500043E-1,9.619050026E0,2.035950184E0
1.500751265E0,-2.110500038E-1,9.607050896E0,2.038050175E0
1.502011340E0,-2.620500028E-1,9.627000809E0,2.008949995E0
1.503271342E0,-2.980500162E-1,9.639000893E0,2.055000067E0
1.504531265E0,-2.569500208E-1,9.591000557E0,2.032950163E0
1.505791340E0,-2.779500186E-1,9.604950905E0,1.993050098E0
1.507051342E0,-2.350500077E-1,9.591000557E0,2.019000053E0
1.508311342E0,-2.929500043E-1,9.673950195E0,2.020950079E0
1.509571342E0,-3.139500022E-1,9.634050369E0,2.047950029E0
1.510831571E0,-2.689500153E-1,9.603000641E0,2.076000214E0
1.512091573E0,-2.710500062E-1,9.624000549E0,2.068950176E0
1.513351573E0,-2.809500098E-1,9.583050728E0,2.055000067E0
1.514611573E0,-3.090000153E-1,9.627000809E0,2.055000067E0
1.515871573E0,-2.689500153E-1,9.655050278E0,2.023950100E0
1.517131648E0,-2.350500077E-1,9.640950203E0,2.064000130E0
1.518391573E0,-2.809500098E-1,9.643050194E0,2.044950008E0
1.519651648E0,-3.169500232E-1,9.643050194E0,2.074050188E0
1.520911645E0,-2.830500007E-1,9.646050453E0,2.038050175E0
1.522171645E0,-2.809500098E-1,9.615000725E0,2.044950008E0
1.523431873E0,-3.139500022E-1,9.612000465E0,2.067000151E0
1.524691875E0,-3.049500287E-1,9.631050110E0,2.110050201E0
1.525951875E0,-2.899500132E-1,9.628950119E0,2.080950022E0
1.527211875E0,-2.380500138E-1,9.595050812E0,2.056950092E0
1.528471875E0,-2.860500216E-1,9.580950737E0,2.047950029E0
1.529731875E0,-3.120000064E-1,9.616950035E0,2.047950029E0
1.530991880E0,-2.400000095E-1,9.658050537E0,2.062050104E0
1.532251880E0,-2.740500271E-1,9.667050362E0,2.055000067E0
1.533511955E0,-3.090000153E-1,9.612000465E0,2.056950092E0
1.534771957E0,-2.539499998E-1,9.640950203E0,2.040000200E0
1.536031957E0,-2.950500250E-1,9.640950203E0,2.047950029E0
1.537291957E0,-2.950500250E-1,9.655050278E0,2.023950100E0
1.538551957E0,-3.409500122E-1,9.646050453E0,2.080950022E0
1.539812186E0,-3.240000010E-1,9.634050369E0,2.038050175E0
1.541072198E0,-3.120000064E-1,9.634050369E0,2.032950163E0
1.542332198E0,-2.639999986E-1,9.676950455E0,2.074050188E0
1.543592198E0,-2.689500153E-1,9.636000633E0,2.068950176E0
1.544852273E0,-2.929500043E-1,9.622050285E0,2.071950197E0
1.546112198E0,-2.860500216E-1,9.612000465E0,2.059950113E0
1.547372273E0,-2.520000041E-1,9.622050285E0,2.050050020E0
1.548632275E0,-2.539499998E-1,9.622050285E0,2.055000067E0
1.549892275E0,-2.880000174E-1,9.612000465E0,2.044950008E0
1.551152289E0,-2.929500043E-1,9.619050026E0,2.044950008E0
1.552412289E0,-2.569500208E-1,9.616950035E0,2.115000010E0
1.553672289E0,-2.760000229E-1,9.591000557E0,2.068950176E0
1.554932518E0,-2.639999986E-1,9.610050201E0,2.056950092E0
1.556192520E0,-3.000000119E-1,9.604950905E0,1.990050077E0
1.557452520E0,-3.000000119E-1,9.652950287E0,2.040000200E0
1.558712520E0,-2.980500162E-1,9.639000893E0,2.031000137E0
1.559972520E0,-2.760000229E-1,9.646050453E0,2.042999983E0
1.561232600E0,-3.169500232E-1,9.652950287E0,2.062050104E0
1.562492602E0,-2.590500116E-1,9.658050537E0,2.100000143E0
1.563752602E0,-2.470500171E-1,9.646050453E0,2.062050104E0
1.565012602E0,-2.710500062E-1,9.610050201E0,2.011950016E0
1.566272831E0,-3.169500232E-1,9.604950905E0,2.042999983E0
1.567532602E0,-2.830500007E-1,9.624000549E0,2.062050104E0
1.568792831E0,-2.860500216E-1,9.627000809E0,2.023950100E0
1.570052833E0,-2.740500271E-1,9.627000809E0,2.026050091E0
1.571312833E0,-2.299500108E-1,9.580950737E0,2.038050175E0
1.572572907E0,-2.929500043E-1,9.646050453E0,2.008949995E0
1.573832833E0,-2.710500062E-1,9.615000725E0,2.050050020E0
1.575092907E0,-2.980500162E-1,9.663000107E0,2.062050104E0
1.576352909E0,-2.689500153E-1,9.660000801E0,2.007000208E0
1.577612909E0,-2.350500077E-1,9.627000809E0,2.074050188E0
1.578872909E0,-2.830500007E-1,9.634050369E0,2.074050188E0
1.580132909E0,-2.830500007E-1,9.651000023E0,2.038050175E0
1.581392923E0,-2.740500271E-1,9.627000809E0,2.032950163E0
1.582653152E0,-2.380500138E-1,9.595050812E0,2.059950113E0
1.583913154E0,-2.209500074E-1,9.576000214E0,2.062050104E0
1.585173154E0,-2.400000095E-1,9.615000725E0,2.088000059E0
1.586433154E0,-2.809500098E-1,9.612000465E0,2.040000200E0
1.587693154E0,-2.569500208E-1,9.652950287E0,1.984950066E0
1.588953154E0,-2.620500028E-1,9.612000465E0,2.005050182E0
1.590213229E0,-3.310500085E-1,9.628950119E0,2.059950113E0
1.591473246E0,-2.590500116E-1,9.670050621E0,2.019000053E0
1.592733246E0,-3.049500287E-1,9.651000023E0,2.035950184E0
1.593993246E0,-2.689500153E-1,9.628950119E0,2.071950197E0
1.595253246E0,-2.569500208E-1,9.624000549E0,2.023950100E0
1.596513475E0,-2.779500186E-1,9.619050026E0,2.020950079E0
1.597773477E0,-2.419500053E-1,9.610050201E0,2.038050175E0
1.599033477E0,-2.520000041E-1,9.670050621E0,2.044950008E0
1.600293477E0,-2.299500108E-1,9.627000809E0,1.995000124E0
1.601553481E0,-2.980500162E-1,9.634050369E0,2.052000046E0
1.602813481E0,-2.809500098E-1,9.627000809E0,2.002050161E0
1.604073556E0,-2.590500116E-1,9.615000725E0,2.031000137E0
1.605333558E0,-2.880000174E-1,9.624000549E0,2.055000067E0
1.606593558E0,-3.049500287E-1,9.639000893E0,2.050050020E0
1.607853558E0,-2.809500098E-1,9.648000717E0,2.050050020E0
1.609113558E0,-2.710500062E-1,9.646050453E0,2.047950029E0
1.610373787E0,-2.590500116E-1,9.627000809E0,2.032950163E0
1.611633804E0,-2.980500162E-1,9.604950905E0,2.047950029E0
1.612893804E0,-2.740500271E-1,9.598050117E0,2.020950079E0
1.614153804E0,-3.120000064E-1,9.639000893E0,2.002050161E0
1.615413804E0,-2.710500062E-1,9.672000885E0,2.068950176E0
1.616673804E0,-3.000000119E-1,9.652950287E0,2.086050034E0
1.617933879E0,-2.899500132E-1,9.652950287E0,2.074050188E0
1.619193881E0,-3.019500077E-1,9.628950119E0,2.071950197E0
1.620453881E0,-2.809500098E-1,9.648000717E0,2.091000080E0
1.621713885E0,-2.689500153E-1,9.639000893E0,2.068950176E0
1.622973885E0,-2.950500250E-1,9.628950119E0,2.092950106E0
1.624233885E0,-2.710500062E-1,9.640950203E0,2.047950029E0
1.625494113E0,-2.830500007E-1,9.670050621E0,2.040000200E0
1.626754115E0,-2.639999986E-1,9.660000801E0,2.011950016E0
1.628014115E0,-2.569500208E-1,9.607050896E0,2.019000053E0
1.629274115E0,-2.470500171E-1,9.612000465E0,2.050050020E0
1.630534115E0,-3.259500265E-1,9.579000473E0,2.035950184E0
1.631794186E0,-2.449500114E-1,9.676950455E0,2.002050161E0
1.633054188E0,-2.809500098E-1,9.664950371E0,2.014050007E0
1.634314188E0,-2.980500162E-1,9.607050896E0,2.035950184E0
1.635574188E0,-2.880000174E-1,9.595050812E0,2.062050104E0
1.636834188E0,-2.689500153E-1,9.643050194E0,2.040000200E0
1.638094188E0,-2.689500153E-1,9.663000107E0,2.068950176E0
1.639354417E0,-2.809500098E-1,9.634050369E0,2.088000059E0
1.640614419E0,-3.090000153E-1,9.624000549E0,2.050050020E0
1.641874409E0,-2.860500216E-1,9.615000725E0,2.050050020E0
1.643134409E0,-2.689500153E-1,9.628950119E0,2.026050091E0
1.644394409E0,-2.470500171E-1,9.643050194E0,2.056950092E0
1.645654484E0,-2.760000229E-1,9.604950905E0,2.026050091E0
1.646914486E0,-2.590500116E-1,9.652950287E0,2.028000116E0
1.648174486E0,-2.419500053E-1,9.624000549E0,2.019000053E0
1.649434486E0,-2.710500062E-1,9.622050285E0,2.040000200E0
1.650694486E0,-3.360000253E-1,9.634050369E0,2.083950043E0
1.651954486E0,-2.400000095E-1,9.646050453E0,2.062050104E0
1.653214715E0,-2.760000229E-1,9.598050117E0,2.014050007E0
1.654474717E0,-2.779500186E-1,9.634050369E0,2.055000067E0
1.655734717E0,-2.639999986E-1,9.660000801E0,2.100000143E0
1.656994717E0,-2.880000174E-1,9.658050537E0,2.056950092E0
1.658254717E0,-2.779500186E-1,9.639000893E0,2.019000053E0
1.659514717E0,-2.400000095E-1,9.663000107E0,1.996950150E0
1.660774792E0,-3.090000153E-1,9.595050812E0,2.031000137E0
1.662034824E0,-2.760000229E-1,9.640950203E0,2.050050020E0
1.663294824E0,-2.740500271E-1,9.616950035E0,2.092950106E0
1.664554824E0,-2.760000229E-1,9.610050201E0,2.055000067E0
1.665814824E0,-2.449500114E-1,9.636000633E0,2.019000053E0
1.667075053E0,-2.860500216E-1,9.658050537E0,2.103000164E0
1.668335055E0,-2.929500043E-1,9.634050369E0,2.026050091E0
1.669595055E0,-2.929500043E-1,9.648000717E0,2.059950113E0
1.670855055E0,-3.289500177E-1,9.664950371E0,2.007000208E0
1.672115060E0,-2.470500171E-1,9.636000633E0,2.032950163E0
1.673375135E0,-2.929500043E-1,9.627000809E0,2.056950092E0
1.674635137E0,-3.190500140E-1,9.664950371E0,2.023950100E0
1.675895137E0,-3.139500022E-1,9.612000465E0,2.014050007E0
1.677155137E0,-2.860500216E-1,9.592950821E0,2.098050117E0
1.678415137E0,-2.689500153E-1,9.612000465E0,2.056950092E0
1.679675137E0,-2.470500171E-1,9.643050194E0,2.032950163E0
1.680935365E0,-2.500500083E-1,9.634050369E0,2.042999983E0
1.682195347E0,-2.760000229E-1,9.607050896E0,2.068950176E0
1.683455347E0,-2.689500153E-1,9.628950119E0,2.011950016E0
1.684715347E0,-3.070500195E-1,9.592950821E0,2.042999983E0
1.685975347E0,-2.659500241E-1,9.636000633E0,2.008949995E0
1.687235347E0,-2.779500186E-1,9.639000893E0,2.038050175E0
1.688495347E0,-2.830500007E-1,9.600000381E0,2.008949995E0
1.689755422E0,-2.659500241E-1,9.660000801E0,2.019000053E0
1.691015424E0,-2.980500162E-1,9.615000725E0,2.011950016E0
1.692275405E0,-3.090000153E-1,9.636000633E0,2.019000053E0
1.693535405E0,-2.419500053E-1,9.619050026E0,2.064000130E0
1.694795634E0,-2.980500162E-1,9.652950287E0,2.064000130E0
1.696055636E0,-3.070500195E-1,9.634050369E0,2.026050091E0
1.697315636E0,-2.689500153E-1,9.636000633E0,2.035950184E0
1.698575636E0,-2.419500053E-1,9.600000381E0,2.031000137E0
1.699835636E0,-2.950500250E-1,9.612000465E0,2.067000151E0
1.701095636E0,-2.860500216E-1,9.564000130E0,2.078999996E0
1.702355701E0,-3.169500232E-1,9.655050278E0,2.011950016E0
1.703615703E0,-2.809500098E-1,9.628950119E0,2.005050182E0
1.704875703E0,-2.520000041E-1,9.628950119E0,2.026050091E0
1.706135703E0,-3.019500077E-1,9.648000717E0,2.050050020E0
1.707395703E0,-3.120000064E-1,9.655050278E0,2.064000130E0
1.708655932E0,-2.779500186E-1,9.636000633E0,2.078999996E0
1.709915703E0,-2.380500138E-1,9.640950203E0,2.052000046E0
1.711175932E0,-2.449500114E-1,9.640950203E0,2.035950184E0
1.712435920E0,-3.049500287E-1,9.628950119E0,2.014050007E0
1.713695920E0,-2.880000174E-1,9.627000809E0,2.064000130E0
1.714955920E0,-2.689500153E-1,9.627000809E0,2.042999983E0
1.716215920E0,-2.569500208E-1,9.655050278E0,2.023950100E0
1.717475995E0,-2.740500271E-1,9.592950821E0,2.038050175E0
1.718735997E0,-2.809500098E-1,9.622050285E0,2.055000067E0
1.719995997E0,-2.860500216E-1,9.588000298E0,2.055000067E0
1.721255997E0,-2.779500186E-1,9.619050026E0,2.031000137E0
1.722516221E0,-2.659500241E-1,9.583050728E0,2.032950163E0
1.723776223E0,-2.639999986E-1,9.592950821E0,1.984950066E0
1.725036223E0,-2.620500028E-1,9.603000641E0,2.052000046E0
1.726296223E0,-2.569500208E-1,9.603000641E0,2.028000116E0
1.727556223E0,-2.760000229E-1,9.612000465E0,2.095950127E0
1.728816223E0,-2.590500116E-1,9.639000893E0,2.032950163E0
1.730076297E0,-2.809500098E-1,9.651000023E0,2.078999996E0
1.731336223E0,-2.860500216E-1,9.664950371E0,2.062050104E0
1.732596302E0,-2.569500208E-1,9.640950203E0,1.971000075E0
1.733856304E0,-2.779500186E-1,9.655050278E0,2.059950113E0
1.735116304E0,-2.689500153E-1,9.619050026E0,2.038050175E0
1.736376304E0,-2.830500007E-1,9.624000549E0,2.016000032E0
1.737636304E0,-2.980500162E-1,9.567000389E0,2.035950184E0
1.738896304E0,-2.449500114E-1,9.616950035E0,1.996950150E0
1.740156533E0,-2.929500043E-1,9.667050362E0,2.026050091E0
1.741416535E0,-2.779500186E-1,9.655050278E0,2.020950079E0
1.742676525E0,-2.500500083E-1,9.634050369E0,2.040000200E0
1.743936600E0,-2.419500053E-1,9.655050278E0,2.071950197E0
1.745196602E0,-2.779500186E-1,9.652950287E0,1.996950150E0
1.746456602E0,-2.569500208E-1,9.652950287E0,2.074050188E0
1.747716602E0,-2.860500216E-1,9.631050110E0,2.032950163E0
1.748976602E0,-2.809500098E-1,9.616950035E0,2.032950163E0
1.750236602E0,-2.950500250E-1,9.615000725E0,2.044950008E0
1.751496831E0,-2.659500241E-1,9.676950455E0,2.055000067E0
1.752756607E0,-2.740500271E-1,9.655050278E0,2.088000059E0
1.754016836E0,-2.950500250E-1,9.634050369E0,2.028000116E0
1.755276838E0,-3.019500077E-1,9.603000641E0,2.071950197E0
1.756536838E0,-2.830500007E-1,9.579000473E0,2.005050182E0
1.757796913E0,-3.070500195E-1,9.622050285E0,2.047950029E0
1.759056838E0,-2.880000174E-1,9.600000381E0,2.014050007E0
1.760316913E0,-2.880000174E-1,9.622050285E0,2.002050161E0
1.761576915E0,-2.400000095E-1,9.616950035E0,2.050050020E0
1.762836910E0,-2.710500062E-1,9.603000641E0,2.059950113E0
1.764096910E0,-2.950500250E-1,9.615000725E0,2.035950184E0
1.765357139E0,-2.880000174E-1,9.660000801E0,2.035950184E0
1.766616910E0,-2.659500241E-1,9.627000809E0,2.020950079E0
1.767877139E0,-2.860500216E-1,9.576000214E0,2.092950106E0
1.769137141E0,-2.590500116E-1,9.619050026E0,2.044950008E0
1.770397141E0,-2.710500062E-1,9.640950203E0,2.038050175E0
1.771657141E0,-3.000000119E-1,9.646050453E0,2.031000137E0
1.772917202E0,-3.019500077E-1,9.595050812E0,2.047950029E0
1.774177127E0,-2.590500116E-1,9.667050362E0,2.028000116E0
1.775437202E0,-2.520000041E-1,9.628950119E0,2.032950163E0
1.776697204E0,-2.760000229E-1,9.588000298E0,2.002050161E0
1.777957204E0,-2.500500083E-1,9.604950905E0,2.050050020E0
1.779217432E0,-3.070500195E-1,9.622050285E0,2.042999983E0
1.780477204E0,-2.419500053E-1,9.652950287E0,1.999950051E0
1.781737432E0,-3.070500195E-1,9.646050453E0,2.032950163E0
1.782997414E0,-3.019500077E-1,9.604950905E0,2.042999983E0
1.784257414E0,-2.880000174E-1,9.612000465E0,2.023950100E0
1.785517489E0,-2.380500138E-1,9.628950119E0,2.026050091E0
1.786777491E0,-2.590500116E-1,9.636000633E0,2.040000200E0
1.788037414E0,-3.070500195E-1,9.643050194E0,2.050050020E0
1.789297489E0,-2.689500153E-1,9.636000633E0,2.076000214E0
1.790557491E0,-2.809500098E-1,9.655050278E0,2.026050091E0
1.791817491E0,-3.000000119E-1,9.643050194E0,2.127000093E0
1.793077487E0,-2.539499998E-1,9.607050896E0,2.071950197E0
1.794337487E0,-2.740500271E-1,9.622050285E0,2.080950022E0
1.795597487E0,-2.689500153E-1,9.643050194E0,2.076000214E0
1.796857716E0,-2.740500271E-1,9.619050026E0,2.068950176E0
1.798117718E0,-2.809500098E-1,9.616950035E0,2.100000143E0
1.799377718E0,-2.539499998E-1,9.670050621E0,2.059950113E0
1.800637793E0,-2.760000229E-1,9.622050285E0,2.014050007E0
1.801897718E0,-2.980500162E-1,9.652950287E0,2.068950176E0
1.803157802E0,-2.760000229E-1,9.628950119E0,2.055000067E0
1.804417804E0,-2.760000229E-1,9.636000633E0,2.007000208E0
1.805677804E0,-2.809500098E-1,9.658050537E0,2.014050007E0
1.806938033E0,-2.639999986E-1,9.655050278E0,2.047950029E0
1.808197804E0,-2.899500132E-1,9.634050369E0,2.086050034E0
1.809458033E0,-3.169500232E-1,9.612000465E0,2.031000137E0
1.810718035E0,-2.590500116E-1,9.624000549E0,2.040000200E0
1.811978035E0,-2.779500186E-1,9.616950035E0,2.044950008E0
1.813238050E0,-2.689500153E-1,9.622050285E0,2.047950029E0
1.814498050E0,-2.899500132E-1,9.643050194E0,2.042999983E0
1.815758050E0,-2.449500114E-1,9.667050362E0,2.002050161E0
1.817018125E0,-2.590500116E-1,9.592950821E0,2.014050007E0
1.818278127E0,-2.980500162E-1,9.615000725E0,2.031000137E0
1.819538127E0,-2.590500116E-1,9.640950203E0,2.028000116E0
1.820798127E0,-3.169500232E-1,9.622050285E0,2.042999983E0
1.822058127E0,-3.450000286E-1,9.639000893E0,2.071950197E0
1.823318346E0,-3.330000043E-1,9.612000465E0,2.040000200E0
1.824578348E0,-2.779500186E-1,9.624000549E0,2.056950092E0
1.825838348E0,-2.950500250E-1,9.640950203E0,2.026050091E0
1.827098348E0,-2.620500028E-1,9.598050117E0,2.035950184E0
1.828358348E0,-2.980500162E-1,9.583050728E0,2.040000200E0
1.829618348E0,-2.899500132E-1,9.598050117E0,2.055000067E0
1.830878423E0,-3.330000043E-1,9.648000717E0,2.059950113E0
1.832138425E0,-2.760000229E-1,9.619050026E0,2.074050188E0
1.833398425E0,-2.449500114E-1,9.615000725E0,2.052000046E0
1.834658425E0,-2.520000041E-1,9.636000633E0,2.040000200E0
1.835918425E0,-2.590500116E-1,9.652950287E0,2.040000200E0
1.837178425E0,-2.860500216E-1,9.643050194E0,2.019000053E0
1.838438653E0,-2.569500208E-1,9.619050026E0,2.031000137E0
1.839698655E0,-2.980500162E-1,9.598050117E0,2.078999996E0
1.840958655E0,-3.070500195E-1,9.574050903E0,2.064000130E0
1.842218655E0,-3.139500022E-1,9.616950035E0,2.062050104E0
1.843478679E0,-2.760000229E-1,9.648000717E0,2.005050182E0
1.844738754E0,-2.280000150E-1,9.631050110E0,2.103000164E0
1.845998756E0,-2.760000229E-1,9.691050529E0,2.042999983E0
1.847258756E0,-2.740500271E-1,9.624000549E0,2.091000080E0
1.848518756E0,-2.520000041E-1,9.639000893E0,2.047950029E0
1.849778756E0,-2.880000174E-1,9.600000381E0,2.047950029E0
1.851038756E0,-2.710500062E-1,9.640950203E0,2.062050104E0
1.852298985E0,-2.760000229E-1,9.600000381E0,2.088000059E0
1.853559011E0,-2.590500116E-1,9.667050362E0,2.076000214E0
1.854819011E0,-2.860500216E-1,9.631050110E0,2.052000046E0
1.856079011E0,-2.539499998E-1,9.622050285E0,2.067000151E0
1.857339011E0,-3.139500022E-1,9.627000809E0,2.040000200E0
1.858599086E0,-3.000000119E-1,9.655050278E0,2.031000137E0
1.859859088E0,-2.659500241E-1,9.619050026E0,2.056950092E0
1.861119088E0,-3.550500274E-1,9.619050026E0,2.014050007E0
1.862379088E0,-2.689500153E-1,9.627000809E0,2.040000200E0
1.863639088E0,-2.449500114E-1,9.652950287E0,2.078999996E0
1.864899088E0,-2.500500083E-1,9.636000633E0,2.038050175E0
1.866159317E0,-2.929500043E-1,9.679050446E0,2.086050034E0
1.867419319E0,-2.760000229E-1,9.643050194E0,2.023950100E0
1.868679319E0,-3.169500232E-1,9.631050110E0,1.995000124E0
1.869939319E0,-3.139500022E-1,9.586050034E0,2.052000046E0
1.871199319E0,-2.830500007E-1,9.634050369E0,2.055000067E0
1.872459394E0,-3.019500077E-1,9.655050278E0,2.064000130E0
1.873719410E0,-2.760000229E-1,9.624000549E0,2.052000046E0
1.874979410E0,-2.470500171E-1,9.639000893E0,2.040000200E0
1.876239410E0,-2.760000229E-1,9.600000381E0,2.032950163E0
1.877499410E0,-3.000000119E-1,9.658050537E0,2.091000080E0
1.878759410E0,-3.000000119E-1,9.660000801E0,2.056950092E0
1.880019639E0,-2.539499998E-1,9.658050537E0,2.050050020E0
1.881279641E0,-3.019500077E-1,9.627000809E0,2.083950043E0
1.882539641E0,-2.710500062E-1,9.667050362E0,2.007000208E0
1.883799632E0,-2.470500171E-1,9.619050026E0,2.052000046E0
1.885059632E0,-2.620500028E-1,9.648000717E0,2.032950163E0
1.886319706E0,-2.380500138E-1,9.643050194E0,2.052000046E0
1.887579708E0,-2.280000150E-1,9.646050453E0,2.016000032E0
1.888839708E0,-2.880000174E-1,9.640950203E0,2.052000046E0
1.890099708E0,-3.090000153E-1,9.604950905E0,2.044950008E0
1.891359708E0,-2.520000041E-1,9.627000809E0,1.995000124E0
1.892619708E0,-2.659500241E-1,9.579000473E0,2.071950197E0
1.893879932E0,-3.000000119E-1,9.619050026E0,2.023950100E0
1.895139934E0,-2.980500162E-1,9.631050110E0,2.047950029E0
1.896399934E0,-2.380500138E-1,9.663000107E0,2.071950197E0
1.897659934E0,-2.329500169E-1,9.651000023E0,2.076000214E0
1.898919934E0,-2.280000150E-1,9.634050369E0,1.990050077E0
1.900180009E0,-2.710500062E-1,9.634050369E0,2.035950184E0
1.901440011E0,-2.950500250E-1,9.646050453E0,2.002050161E0
1.902700011E0,-2.929500043E-1,9.616950035E0,2.035950184E0
1.903960030E0,-2.500500083E-1,9.646050453E0,2.020950079E0
1.905220030E0,-2.179500163E-1,9.652950287E0,2.031000137E0
1.906480030E0,-2.639999986E-1,9.624000549E0,2.020950079E0
1.907740259E0,-3.360000253E-1,9.634050369E0,2.042999983E0
1.909000261E0,-2.590500116E-1,9.627000809E0,2.071950197E0
1.910260261E0,-3.090000153E-1,9.583050728E0,2.055000067E0
1.911520261E0,-2.980500162E-1,9.628950119E0,2.019000053E0
1.912780261E0,-2.980500162E-1,9.658050537E0,2.005050182E0
1.914040256E0,-2.449500114E-1,9.652950287E0,2.028000116E0
1.915300331E0,-2.659500241E-1,9.615000725E0,2.040000200E0
1.916560333E0,-2.689500153E-1,9.622050285E0,1.999950051E0
1.917820333E0,-2.830500007E-1,9.643050194E0,2.067000151E0
1.919080333E0,-2.809500098E-1,9.588000298E0,2.064000130E0
1.920340333E0,-2.470500171E-1,9.592950821E0,2.092950106E0
1.921600562E0,-2.980500162E-1,9.624000549E0,2.083950043E0
1.922860564E0,-2.880000174E-1,9.610050201E0,2.064000130E0
1.924120564E0,-2.860500216E-1,9.673950195E0,2.031000137E0
1.925380564E0,-2.950500250E-1,9.619050026E0,2.068950176E0
1.926640564E0,-3.000000119E-1,9.595050812E0,2.026050091E0
1.927900639E0,-2.380500138E-1,9.588000298E0,2.068950176E0
1.929160641E0,-2.880000174E-1,9.631050110E0,2.086050034E0
1.930420641E0,-2.710500062E-1,9.544950485E0,2.047950029E0
1.931680641E0,-2.809500098E-1,9.592950821E0,2.031000137E0
1.932940641E0,-2.860500216E-1,9.652950287E0,2.028000116E0
1.934200656E0,-2.860500216E-1,9.628950119E0,2.038050175E0
1.935460884E0,-2.620500028E-1,9.643050194E0,2.071950197E0
1.936720886E0,-2.830500007E-1,9.616950035E0,2.038050175E0
1.937980886E0,-2.620500028E-1,9.634050369E0,2.055000067E0
1.939240886E0,-3.000000119E-1,9.586050034E0,2.042999983E0
1.940500886E0,-3.169500232E-1,9.592950821E0,2.047950029E0
1.941760961E0,-2.950500250E-1,9.574050903E0,2.038050175E0
1.943020963E0,-2.620500028E-1,9.600000381E0,2.038050175E0
1.944280987E0,-3.169500232E-1,9.616950035E0,2.028000116E0
1.945540987E0,-3.019500077E-1,9.588000298E0,2.074050188E0
1.946800987E0,-2.740500271E-1,9.604950905E0,2.052000046E0
1.948060987E0,-2.689500153E-1,9.603000641E0,2.019000053E0
1.949321216E0,-2.710500062E-1,9.607050896E0,2.020950079E0
1.950580987E0,-2.779500186E-1,9.628950119E0,2.016000032E0
1.951841216E0,-2.639999986E-1,9.615000725E0,2.047950029E0
1.953101218E0,-3.019500077E-1,9.636000633E0,2.052000046E0
1.954361208E0,-2.779500186E-1,9.616950035E0,2.056950092E0
1.955621208E0,-3.070500195E-1,9.616950035E0,2.035950184E0
1.956881283E0,-2.590500116E-1,9.631050110E0,2.008949995E0
1.958141285E0,-3.019500077E-1,9.672000885E0,2.023950100E0
1.959401285E0,-2.569500208E-1,9.610050201E0,2.002050161E0
1.960661285E0,-2.419500053E-1,9.604950905E0,2.040000200E0
1.961921285E0,-2.539499998E-1,9.628950119E0,2.056950092E0
1.963181514E0,-2.689500153E-1,9.643050194E0,2.059950113E0
1.964441526E0,-2.140500098E-1,9.667050362E0,2.091000080E0
1.965701526E0,-2.639999986E-1,9.598050117E0,2.008949995E0
1.966961526E0,-2.760000229E-1,9.646050453E0,2.016000032E0
1.968221526E0,-2.880000174E-1,9.598050117E0,2.050050020E0
1.969481526E0,-2.880000174E-1,9.636000633E0,2.040000200E0
1.970741601E0,-3.169500232E-1,9.616950035E0,2.047950029E0
1.972001526E0,-3.049500287E-1,9.639000893E0,2.055000067E0
1.973261601E0,-3.019500077E-1,9.676950455E0,2.035950184E0
1.974521574E0,-2.520000041E-1,9.651000023E0,2.035950184E0
1.975781574E0,-2.590500116E-1,9.652950287E0,2.040000200E0
1.977041803E0,-2.980500162E-1,9.622050285E0,2.042999983E0
1.978301574E0,-2.830500007E-1,9.646050453E0,2.047950029E0
1.979561803E0,-2.950500250E-1,9.639000893E0,2.002050161E0
1.980821805E0,-2.639999986E-1,9.655050278E0,2.002050161E0
1.982081805E0,-2.809500098E-1,9.631050110E0,2.040000200E0
1.983341805E0,-2.620500028E-1,9.667050362E0,2.052000046E0
1.984601880E0,-2.740500271E-1,9.607050896E0,2.042999983E0
1.985861882E0,-3.169500232E-1,9.624000549E0,2.035950184E0
1.987121882E0,-2.500500083E-1,9.652950287E0,2.064000130E0
1.988381882E0,-3.019500077E-1,9.640950203E0,2.047950029E0
1.989641882E0,-2.779500186E-1,9.640950203E0,2.083950043E0
1.990902110E0,-3.019500077E-1,9.651000023E0,2.055000067E0
1.992162112E0,-2.620500028E-1,9.651000023E0,2.056950092E0
1.993421882E0,-2.500500083E-1,9.619050026E0,2.047950029E0
1.994682124E0,-2.639999986E-1,9.607050896E0,2.047950029E0
1.995942126E0,-2.740500271E-1,9.607050896E0,2.042999983E0
1.997202126E0,-2.620500028E-1,9.684000015E0,2.023950100E0
1.998462201E0,-2.689500153E-1,9.643050194E0,2.092950106E0
1.999722126E0,-2.760000229E-1,9.676950455E0,2.044950008E0
2.000982124E0,-2.689500153E-1,9.639000893E0,2.064000130E0
2.002242201E0,-2.639999986E-1,9.607050896E0,2.088000059E0
2.003502203E0,-2.419500053E-1,9.628950119E0,2.038050175E0
2.004762408E0,-3.070500195E-1,9.612000465E0,1.995000124E0
2.006022410E0,-2.520000041E-1,9.624000549E0,2.035950184E0
2.007282410E0,-2.590500116E-1,9.604950905E0,2.020950079E0
2.008542410E0,-2.400000095E-1,9.651000023E0,2.038050175E0
2.009802410E0,-3.000000119E-1,9.648000717E0,2.028000116E0
2.011062410E0,-3.090000153E-1,9.598050117E0,2.023950100E0
2.012322410E0,-2.860500216E-1,9.624000549E0,2.028000116E0
2.013582485E0,-2.899500132E-1,9.612000465E0,1.999950051E0
2.014842463E0,-2.860500216E-1,9.639000893E0,2.059950113E0
2.016102463E0,-2.880000174E-1,9.612000465E0,2.035950184E0
2.017362463E0,-2.830500007E-1,9.664950371E0,2.098050117E0
2.018622463E0,-2.500500083E-1,9.651000023E0,2.076000214E0
2.019882692E0,-2.639999986E-1,9.619050026E0,2.062050104E0
2.021142463E0,-2.980500162E-1,9.648000717E0,2.083950043E0
2.022402692E0,-3.289500177E-1,9.655050278E0,2.044950008E0
2.023662694E0,-2.809500098E-1,9.631050110E0,2.052000046E0
2.024922713E0,-3.070500195E-1,9.685950279E0,2.016000032E0
2.026182788E0,-2.620500028E-1,9.616950035E0,2.044950008E0
2.027442790E0,-2.760000229E-1,9.670050621E0,2.062050104E0
2.028702713E0,-2.779500186E-1,9.631050110E0,2.035950184E0
2.029962788E0,-2.620500028E-1,9.631050110E0,2.078999996E0
2.031222790E0,-2.929500043E-1,9.639000893E0,2.056950092E0
2.032482790E0,-3.330000043E-1,9.627000809E0,2.055000067E0
2.033742790E0,-3.169500232E-1,9.603000641E0,2.031000137E0
2.035003023E0,-2.760000229E-1,9.607050896E0,1.999950051E0
2.036263026E0,-2.830500007E-1,9.591000557E0,2.080950022E0
2.037523026E0,-2.639999986E-1,9.607050896E0,2.032950163E0
2.038783026E0,-3.090000153E-1,9.643050194E0,2.047950029E0
2.040043026E0,-2.760000229E-1,9.610050201E0,2.035950184E0
2.041303100E0,-2.710500062E-1,9.639000893E0,2.047950029E0
2.042563026E0,-2.779500186E-1,9.652950287E0,2.023950100E0
2.043823100E0,-2.809500098E-1,9.631050110E0,2.038050175E0
2.045083117E0,-2.809500098E-1,9.627000809E0,2.055000067E0
2.046343117E0,-2.620500028E-1,9.615000725E0,2.023950100E0
2.047603346E0,-2.880000174E-1,9.646050453E0,2.067000151E0
2.048863348E0,-2.760000229E-1,9.651000023E0,2.064000130E0
2.050123348E0,-2.929500043E-1,9.663000107E0,2.026050091E0
2.051383348E0,-2.950500250E-1,9.660000801E0,2.019000053E0
2.052643348E0,-2.860500216E-1,9.610050201E0,2.062050104E0
2.053903348E0,-2.830500007E-1,9.607050896E0,2.035950184E0
2.055163362E0,-2.899500132E-1,9.636000633E0,2.068950176E0
2.056423362E0,-2.860500216E-1,9.670050621E0,2.011950016E0
2.057683437E0,-2.449500114E-1,9.646050453E0,2.032950163E0
2.058943439E0,-2.520000041E-1,9.639000893E0,2.064000130E0
2.060203439E0,-2.639999986E-1,9.622050285E0,2.023950100E0
2.061463439E0,-2.449500114E-1,9.631050110E0,2.062050104E0
2.062723439E0,-2.590500116E-1,9.667050362E0,2.031000137E0
2.063983668E0,-2.299500108E-1,9.673950195E0,2.019000053E0
2.065243675E0,-2.639999986E-1,9.664950371E0,2.068950176E0
2.066503675E0,-2.740500271E-1,9.643050194E0,2.019000053E0
2.067763675E0,-2.400000095E-1,9.628950119E0,2.056950092E0
2.069023750E0,-2.830500007E-1,9.610050201E0,1.995000124E0
2.070283675E0,-3.070500195E-1,9.652950287E0,2.019000053E0
2.071543750E0,-2.539499998E-1,9.646050453E0,2.005050182E0
2.072803752E0,-2.779500186E-1,9.658050537E0,2.020950079E0
2.074063752E0,-2.779500186E-1,9.616950035E0,2.056950092E0
2.075323732E0,-2.950500250E-1,9.639000893E0,2.020950079E0
2.076583732E0,-2.710500062E-1,9.615000725E0,2.038050175E0
2.077843732E0,-2.740500271E-1,9.624000549E0,2.064000130E0
2.079103961E0,-2.760000229E-1,9.646050453E0,2.032950163E0
2.080363963E0,-3.019500077E-1,9.667050362E0,2.080950022E0
2.081623963E0,-2.380500138E-1,9.646050453E0,2.052000046E0
2.082883963E0,-2.689500153E-1,9.646050453E0,2.042999983E0
2.084143963E0,-2.620500028E-1,9.639000893E0,2.062050104E0
2.085404048E0,-2.830500007E-1,9.607050896E0,2.044950008E0
2.086664050E0,-2.449500114E-1,9.664950371E0,2.047950029E0
2.087924050E0,-2.860500216E-1,9.639000893E0,2.052000046E0
2.089184050E0,-2.809500098E-1,9.616950035E0,2.080950022E0
2.090444050E0,-2.620500028E-1,9.636000633E0,2.074050188E0
2.091704278E0,-2.659500241E-1,9.603000641E0,2.038050175E0
2.092964280E0,-2.950500250E-1,9.619050026E0,2.042999983E0
2.094224280E0,-2.470500171E-1,9.583050728E0,2.035950184E0
2.095484256E0,-2.830500007E-1,9.615000725E0,2.074050188E0
2.096744256E0,-2.470500171E-1,9.636000633E0,2.050050020E0
2.098004256E0,-2.689500153E-1,9.679050446E0,2.044950008E0
2.099264331E0,-2.760000229E-1,9.639000893E0,2.035950184E0
2.100524333E0,-2.950500250E-1,9.576000214E0,2.040000200E0
2.101784333E0,-3.259500265E-1,9.648000717E0,2.078999996E0
2.103044333E0,-2.689500153E-1,9.610050201E0,2.080950022E0
2.104304333E0,-3.070500195E-1,9.652950287E0,1.993050098E0
2.105564557E0,-2.639999986E-1,9.639000893E0,2.032950163E0
2.106824559E0,-2.860500216E-1,9.676950455E0,2.055000067E0
2.108084559E0,-2.329500169E-1,9.631050110E0,2.068950176E0
2.109344559E0,-2.620500028E-1,9.615000725E0,2.044950008E0
2.110604559E0,-2.539499998E-1,9.627000809E0,2.038050175E0
2.111864559E0,-2.860500216E-1,9.627000809E0,2.052000046E0
2.113124634E0,-2.590500116E-1,9.643050194E0,2.083950043E0
2.114384636E0,-3.049500287E-1,9.598050117E0,2.044950008E0
2.115644656E0,-2.639999986E-1,9.655050278E0,2.056950092E0
2.116904656E0,-2.929500043E-1,9.660000801E0,2.056950092E0
2.118164656E0,-3.000000119E-1,9.639000893E0,2.047950029E0
2.119424885E0,-2.809500098E-1,9.628950119E0,2.059950113E0
2.120684887E0,-2.830500007E-1,9.619050026E0,2.055000067E0
2.121944887E0,-2.299500108E-1,9.627000809E0,2.019000053E0
2.123204887E0,-2.779500186E-1,9.579000473E0,2.059950113E0
2.124464887E0,-2.500500083E-1,9.619050026E0,2.052000046E0
2.125724896E0,-3.190500140E-1,9.673950195E0,2.050050020E0
2.126984971E0,-2.899500132E-1,9.622050285E0,2.062050104E0
2.128244973E0,-2.689500153E-1,9.631050110E0,2.088000059E0
2.129504973E0,-2.830500007E-1,9.640950203E0,2.062050104E0
2.130764973E0,-2.980500162E-1,9.631050110E0,2.050050020E0
2.132024973E0,-2.830500007E-1,9.616950035E0,2.055000067E0
2.133285202E0,-3.090000153E-1,9.648000717E0,2.092950106E0
2.134545204E0,-2.539499998E-1,9.634050369E0,2.078999996E0
2.135805214E0,-3.090000153E-1,9.673950195E0,2.052000046E0
2.137065214E0,-2.449500114E-1,9.583050728E0,2.042999983E0
2.138325214E0,-2.449500114E-1,9.588000298E0,2.055000067E0
2.139585214E0,-3.450000286E-1,9.619050026E0,2.019000053E0
2.140845289E0,-2.980500162E-1,9.639000893E0,2.067000151E0
2.142105291E0,-2.350500077E-1,9.600000381E0,2.031000137E0
2.143365291E0,-2.639999986E-1,9.651000023E0,2.040000200E0
2.144625291E0,-2.760000229E-1,9.643050194E0,2.047950029E0
2.145885291E0,-2.520000041E-1,9.652950287E0,2.040000200E0
2.147145291E0,-2.659500241E-1,9.603000641E0,2.068950176E0
2.148405519E0,-2.779500186E-1,9.628950119E0,2.103000164E0
2.149665521E0,-2.779500186E-1,9.640950203E0,2.062050104E0
2.150925521E0,-2.689500153E-1,9.628950119E0,2.014050007E0
2.152185521E0,-2.449500114E-1,9.607050896E0,2.092950106E0
2.153445521E0,-2.899500132E-1,9.624000549E0,2.032950163E0
2.154705596E0,-3.070500195E-1,9.624000549E0,2.019000053E0
2.155965578E0,-2.860500216E-1,9.628950119E0,2.042999983E0
2.157225578E0,-3.139500022E-1,9.655050278E0,2.031000137E0
2.158485578E0,-3.360000253E-1,9.636000633E0,2.067000151E0
2.159745578E0,-2.779500186E-1,9.627000809E0,2.042999983E0
2.161005807E0,-2.449500114E-1,9.607050896E0,2.032950163E0
2.162265809E0,-2.760000229E-1,9.652950287E0,2.068950176E0
2.163525809E0,-2.899500132E-1,9.639000893E0,2.056950092E0
2.164785809E0,-2.929500043E-1,9.616950035E0,2.050050020E0
2.166045824E0,-3.070500195E-1,9.610050201E0,2.020950079E0
2.167305824E0,-2.899500132E-1,9.610050201E0,2.042999983E0
2.168565899E0,-2.569500208E-1,9.591000557E0,2.044950008E0
2.169825901E0,-2.880000174E-1,9.612000465E0,2.028000116E0
2.171085901E0,-2.779500186E-1,9.640950203E0,2.007000208E0
2.172345901E0,-2.950500250E-1,9.612000465E0,2.059950113E0
2.173605901E0,-2.880000174E-1,9.663000107E0,2.068950176E0
2.174865901E0,-2.830500007E-1,9.631050110E0,2.052000046E0
2.176126144E0,-3.070500195E-1,9.628950119E0,2.076000214E0
2.177386146E0,-3.210000098E-1,9.648000717E0,1.993050098E0
2.178646146E0,-2.980500162E-1,9.612000465E0,2.040000200E0
2.179906146E0,-2.830500007E-1,9.627000809E0,2.052000046E0
2.181166146E0,-2.590500116E-1,9.640950203E0,2.005050182E0
2.182426221E0,-3.289500177E-1,9.607050896E0,2.031000137E0
2.183686223E0,-3.000000119E-1,9.670050621E0,2.032950163E0
2.184946223E0,-2.760000229E-1,9.616950035E0,2.011950016E0
2.186206223E0,-2.500500083E-1,9.640950203E0,1.996950150E0
2.187466209E0,-2.929500043E-1,9.639000893E0,2.020950079E0
2.188726437E0,-3.210000098E-1,9.658050537E0,2.047950029E0
2.189986439E0,-3.090000153E-1,9.652950287E0,2.042999983E0
2.191246439E0,-2.760000229E-1,9.634050369E0,2.035950184E0
2.192506439E0,-2.779500186E-1,9.694050789E0,2.062050104E0
2.193766439E0,-2.809500098E-1,9.615000725E0,2.078999996E0
2.195026439E0,-2.950500250E-1,9.631050110E0,2.100000143E0
2.196286514E0,-2.329500169E-1,9.660000801E0,2.028000116E0
2.197546516E0,-2.760000229E-1,9.648000717E0,2.031000137E0
2.198806516E0,-2.950500250E-1,9.619050026E0,2.035950184E0
2.200066516E0,-2.860500216E-1,9.600000381E0,2.026050091E0
2.201326516E0,-2.880000174E-1,9.628950119E0,2.016000032E0
2.202586516E0,-2.639999986E-1,9.610050201E0,2.056950092E0
2.203846745E0,-3.019500077E-1,9.628950119E0,2.050050020E0
2.205106747E0,-2.639999986E-1,9.648000717E0,2.031000137E0
2.206366747E0,-3.000000119E-1,9.648000717E0,2.044950008E0
2.207626742E0,-2.569500208E-1,9.562050819E0,2.023950100E0
2.208886742E0,-3.120000064E-1,9.619050026E0,2.023950100E0
2.210146817E0,-2.899500132E-1,9.639000893E0,2.052000046E0
2.211406819E0,-2.830500007E-1,9.639000893E0,2.016000032E0
2.212666742E0,-2.860500216E-1,9.628950119E0,2.056950092E0
2.213926817E0,-3.210000098E-1,9.660000801E0,2.055000067E0
2.215186819E0,-2.779500186E-1,9.631050110E0,2.062050104E0
2.216447048E0,-2.809500098E-1,9.672000885E0,2.086050034E0
2.217707059E0,-2.899500132E-1,9.636000633E0,2.023950100E0
2.218967059E0,-2.950500250E-1,9.667050362E0,2.067000151E0
2.220227059E0,-2.860500216E-1,9.574050903E0,2.042999983E0
2.221487059E0,-3.139500022E-1,9.607050896E0,2.028000116E0
2.222747059E0,-2.350500077E-1,9.648000717E0,2.059950113E0
2.224007059E0,-2.710500062E-1,9.592950821E0,2.031000137E0
2.225267134E0,-2.350500077E-1,9.631050110E0,2.071950197E0
2.226527136E0,-2.860500216E-1,9.607050896E0,2.026050091E0
2.227787122E0,-2.710500062E-1,9.616950035E0,2.055000067E0
2.229047122E0,-2.639999986E-1,9.615000725E0,2.019000053E0
2.230307351E0,-2.779500186E-1,9.607050896E0,1.987950087E0
2.231567353E0,-2.710500062E-1,9.579000473E0,2.016000032E0
2.232827353E0,-2.830500007E-1,9.640950203E0,2.040000200E0
2.234087353E0,-2.899500132E-1,9.640950203E0,2.007000208E0
2.235347353E0,-2.569500208E-1,9.619050026E0,2.019000053E0
2.236607353E0,-2.899500132E-1,9.622050285E0,2.086050034E0
2.237867457E0,-2.899500132E-1,9.612000465E0,2.031000137E0
2.239127459E0,-3.000000119E-1,9.639000893E0,2.047950029E0
2.240387382E0,-2.760000229E-1,9.673950195E0,2.052000046E0
2.241647457E0,-2.689500153E-1,9.634050369E0,2.020950079E0
2.242907459E0,-2.539499998E-1,9.651000023E0,2.020950079E0
2.244167459E0,-2.830500007E-1,9.673950195E0,2.078999996E0
2.245427459E0,-2.400000095E-1,9.592950821E0,2.050050020E0
2.246687459E0,-2.620500028E-1,9.615000725E0,2.028000116E0
2.247947687E0,-2.740500271E-1,9.643050194E0,2.074050188E0
2.249207689E0,-3.049500287E-1,9.595050812E0,2.047950029E0
2.250467689E0,-2.569500208E-1,9.598050117E0,2.011950016E0
2.251727689E0,-2.950500250E-1,9.603000641E0,2.019000053E0
2.252987764E0,-2.860500216E-1,9.685950279E0,2.035950184E0
2.254247766E0,-2.760000229E-1,9.583050728E0,2.052000046E0
2.255507766E0,-2.710500062E-1,9.646050453E0,2.023950100E0
2.256767766E0,-2.740500271E-1,9.616950035E0,2.078999996E0
2.258027790E0,-3.310500085E-1,9.622050285E0,2.067000151E0
2.259288019E0,-2.449500114E-1,9.643050194E0,2.020950079E0
2.260548021E0,-2.740500271E-1,9.640950203E0,2.064000130E0
2.261808021E0,-2.620500028E-1,9.604950905E0,2.040000200E0
2.263068021E0,-2.520000041E-1,9.615000725E0,2.044950008E0
2.264328021E0,-2.520000041E-1,9.639000893E0,2.088000059E0
2.265588021E0,-3.049500287E-1,9.628950119E0,2.050050020E0
2.266848096E0,-3.120000064E-1,9.658050537E0,2.040000200E0
2.268108030E0,-2.779500186E-1,9.619050026E0,2.047950029E0
2.269368105E0,-2.740500271E-1,9.612000465E0,2.052000046E0
2.270628107E0,-2.740500271E-1,9.640950203E0,2.074050188E0
2.271888107E0,-3.000000119E-1,9.622050285E0,2.016000032E0
2.273148107E0,-3.259500265E-1,9.604950905E0,2.023950100E0
2.274408107E0,-2.980500162E-1,9.636000633E0,2.050050020E0
2.275668336E0,-3.049500287E-1,9.660000801E0,2.091000080E0
2.276928338E0,-3.169500232E-1,9.571050644E0,2.056950092E0
2.278188353E0,-2.880000174E-1,9.598050117E0,2.050050020E0
2.279448353E0,-2.899500132E-1,9.640950203E0,2.050050020E0
2.280708428E0,-2.620500028E-1,9.616950035E0,2.028000116E0
2.281968430E0,-3.090000153E-1,9.619050026E0,2.067000151E0
2.283228430E0,-3.070500195E-1,9.634050369E0,2.031000137E0
2.284488430E0,-2.710500062E-1,9.667050362E0,1.987950087E0
2.285748430E0,-2.639999986E-1,9.640950203E0,2.044950008E0
2.287008430E0,-2.539499998E-1,9.586050034E0,2.042999983E0
2.288268630E0,-2.809500098E-1,9.694050789E0,2.014050007E0
2.289528401E0,-2.380500138E-1,9.639000893E0,2.050050020E0
2.290788630E0,-2.620500028E-1,9.604950905E0,2.062050104E0
2.292048632E0,-2.659500241E-1,9.562050819E0,2.038050175E0
2.293308706E0,-2.620500028E-1,9.583050728E0,2.005050182E0
2.294568632E0,-2.350500077E-1,9.628950119E0,2.026050091E0
2.295828630E0,-2.449500114E-1,9.610050201E0,2.023950100E0
2.297088707E0,-2.569500208E-1,9.651000023E0,2.078999996E0
2.298348714E0,-2.110500038E-1,9.652950287E0,2.035950184E0
2.299608714E0,-2.779500186E-1,9.643050194E0,2.052000046E0
2.300868714E0,-2.740500271E-1,9.627000809E0,2.071950197E0
2.302128714E0,-2.740500271E-1,9.619050026E0,2.050050020E0
2.303388942E0,-3.090000153E-1,9.648000717E0,2.035950184E0
2.304648944E0,-2.400000095E-1,9.604950905E0,2.020950079E0
2.305908944E0,-2.569500208E-1,9.624000549E0,2.092950106E0
2.307168944E0,-2.659500241E-1,9.648000717E0,2.068950176E0
2.308428919E0,-2.809500098E-1,9.628950119E0,2.016000032E0
2.309688994E0,-2.590500116E-1,9.586050034E0,2.007000208E0
2.310948996E0,-3.169500232E-1,9.622050285E0,2.038050175E0
2.312208996E0,-2.740500271E-1,9.651000023E0,2.032950163E0
2.313468996E0,-2.620500028E-1,9.643050194E0,2.059950113E0
2.314728996E0,-2.860500216E-1,9.615000725E0,2.028000116E0
2.315988996E0,-3.120000064E-1,9.624000549E0,2.056950092E0
2.317248996E0,-2.880000174E-1,9.616950035E0,2.040000200E0
2.318509220E0,-2.639999986E-1,9.648000717E0,2.056950092E0
2.319769222E0,-2.590500116E-1,9.664950371E0,2.014050007E0
2.321029297E0,-2.980500162E-1,9.610050201E0,2.028000116E0
2.322289222E0,-2.659500241E-1,9.588000298E0,2.026050091E0
2.323549220E0,-2.710500062E-1,9.640950203E0,2.028000116E0
2.324809297E0,-2.899500132E-1,9.655050278E0,2.032950163E0
2.326069299E0,-2.779500186E-1,9.624000549E0,2.059950113E0
2.327329299E0,-3.070500195E-1,9.610050201E0,2.095950127E0
2.328589304E0,-2.710500062E-1,9.627000809E0,2.032950163E0
2.329849304E0,-2.710500062E-1,9.612000465E0,2.026050091E0
2.331109533E0,-2.659500241E-1,9.679050446E0,2.078999996E0
2.332369535E0,-2.779500186E-1,9.651000023E0,2.059950113E0
2.333629535E0,-2.950500250E-1,9.612000465E0,2.047950029E0
2.334889535E0,-2.950500250E-1,9.612000465E0,2.056950092E0
2.336149535E0,-2.639999986E-1,9.615000725E0,2.019000053E0
2.337409535E0,-2.929500043E-1,9.562050819E0,2.040000200E0
2.338669605E0,-3.070500195E-1,9.615000725E0,2.044950008E0
2.339929607E0,-2.929500043E-1,9.639000893E0,2.014050007E0
2.341189607E0,-2.809500098E-1,9.612000465E0,2.067000151E0
2.342449835E0,-2.760000229E-1,9.627000809E0,2.076000214E0
2.343709607E0,-2.710500062E-1,9.628950119E0,2.076000214E0
2.344969835E0,-2.280000150E-1,9.574050903E0,2.026050091E0
2.346229837E0,-2.880000174E-1,9.660000801E0,2.028000116E0
2.347489837E0,-3.259500265E-1,9.643050194E0,2.092950106E0
2.348749832E0,-2.880000174E-1,9.627000809E0,2.056950092E0
2.350009832E0,-2.590500116E-1,9.639000893E0,2.047950029E0
2.351269832E0,-2.260500044E-1,9.631050110E0,2.074050188E0
2.352529907E0,-2.980500162E-1,9.628950119E0,2.076000214E0
2.353789909E0,-3.190500140E-1,9.634050369E0,2.050050020E0
2.355049909E0,-2.830500007E-1,9.634050369E0,2.056950092E0
2.356309909E0,-2.569500208E-1,9.607050896E0,2.068950176E0
2.357569909E0,-2.860500216E-1,9.639000893E0,2.016000032E0
2.358830119E0,-2.809500098E-1,9.652950287E0,2.035950184E0
2.360090121E0,-3.169500232E-1,9.631050110E0,2.019000053E0
2.361350121E0,-2.740500271E-1,9.604950905E0,2.050050020E0
2.362610121E0,-2.710500062E-1,9.583050728E0,2.050050020E0
2.363870121E0,-2.929500043E-1,9.583050728E0,2.032950163E0
2.365130121E0,-2.539499998E-1,9.610050201E0,2.059950113E0
2.366390196E0,-2.860500216E-1,9.634050369E0,2.014050007E0
2.367650198E0,-3.049500287E-1,9.685950279E0,2.088000059E0
2.368910188E0,-2.929500043E-1,9.660000801E0,2.032950163E0
2.370170188E0,-2.539499998E-1,9.673950195E0,2.059950113E0
2.371430188E0,-2.569500208E-1,9.652950287E0,2.038050175E0
2.372690188E0,-2.880000174E-1,9.612000465E0,2.067000151E0
2.373950417E0,-2.760000229E-1,9.636000633E0,2.007000208E0
2.375210419E0,-2.569500208E-1,9.651000023E0,2.035950184E0
2.376470419E0,-2.899500132E-1,9.622050285E0,2.076000214E0
2.377730419E0,-2.500500083E-1,9.627000809E0,2.067000151E0
2.378990409E0,-2.710500062E-1,9.615000725E0,2.044950008E0
2.380250484E0,-2.470500171E-1,9.658050537E0,2.055000067E0
2.381510486E0,-2.659500241E-1,9.607050896E0,2.038050175E0
2.382770486E0,-2.539499998E-1,9.667050362E0,2.059950113E0
2.384030486E0,-3.210000098E-1,9.634050369E0,2.055000067E0
2.385290486E0,-3.090000153E-1,9.634050369E0,2.014050007E0
2.386550715E0,-2.860500216E-1,9.651000023E0,2.016000032E0
2.387810717E0,-2.880000174E-1,9.612000465E0,2.064000130E0
2.389070717E0,-3.210000098E-1,9.607050896E0,2.062050104E0
2.390330717E0,-2.830500007E-1,9.579000473E0,2.035950184E0
2.391590717E0,-2.830500007E-1,9.648000717E0,2.083950043E0
2.392850717E0,-2.740500271E-1,9.639000893E0,2.047950029E0
2.394110792E0,-2.380500138E-1,9.648000717E0,2.038050175E0
2.395370794E0,-2.929500043E-1,9.664950371E0,2.011950016E0
2.396630794E0,-3.139500022E-1,9.634050369E0,2.050050020E0
2.397890794E0,-3.169500232E-1,9.639000893E0,2.050050020E0
2.399150799E0,-2.740500271E-1,9.640950203E0,2.078999996E0
2.400411027E0,-2.620500028E-1,9.607050896E0,2.035950184E0
2.401671029E0,-2.500500083E-1,9.639000893E0,2.059950113E0
2.402931029E0,-2.779500186E-1,9.628950119E0,2.092950106E0
2.404191029E0,-3.190500140E-1,9.600000381E0,2.047950029E0
2.405451029E0,-2.779500186E-1,9.646050453E0,2.042999983E0
2.406711029E0,-3.019500077E-1,9.639000893E0,2.050050020E0
2.407971104E0,-2.659500241E-1,9.619050026E0,2.062050104E0
2.409231116E0,-2.740500271E-1,9.640950203E0,2.050050020E0
2.410491116E0,-2.520000041E-1,9.651000023E0,2.062050104E0
2.411751116E0,-2.880000174E-1,9.648000717E0,2.078999996E0
2.413011116E0,-2.760000229E-1,9.655050278E0,2.023950100E0
2.414271345E0,-2.400000095E-1,9.658050537E0,2.035950184E0
2.415531347E0,-2.539499998E-1,9.616950035E0,2.014050007E0
2.416791347E0,-2.950500250E-1,9.634050369E0,2.028000116E0
2.418051347E0,-2.809500098E-1,9.634050369E0,2.019000053E0
2.419311356E0,-2.779500186E-1,9.616950035E0,2.032950163E0
2.420571356E0,-3.259500265E-1,9.607050896E0,2.055000067E0
2.421831431E0,-3.049500287E-1,9.652950287E0,2.078999996E0
2.423091433E0,-2.449500114E-1,9.603000641E0,2.064000130E0
2.424351433E0,-2.659500241E-1,9.622050285E0,2.047950029E0
2.425611433E0,-2.950500250E-1,9.604950905E0,2.050050020E0
2.426871433E0,-2.779500186E-1,9.627000809E0,2.078999996E0
2.428131662E0,-2.500500083E-1,9.610050201E0,2.047950029E0
2.429391660E0,-2.950500250E-1,9.612000465E0,2.044950008E0
2.430651660E0,-2.779500186E-1,9.636000633E0,2.083950043E0
2.431911660E0,-2.950500250E-1,9.610050201E0,2.080950022E0
2.433171660E0,-2.809500098E-1,9.673950195E0,2.050050020E0
2.434431735E0,-2.740500271E-1,9.667050362E0,2.095950127E0
2.435691737E0,-2.620500028E-1,9.615000725E0,2.068950176E0
2.436951737E0,-2.860500216E-1,9.615000725E0,2.038050175E0
2.438211737E0,-3.210000098E-1,9.624000549E0,2.035950184E0
2.439471722E0,-2.779500186E-1,9.598050117E0,2.047950029E0
2.440731722E0,-2.830500007E-1,9.607050896E0,2.031000137E0
2.441991951E0,-2.860500216E-1,9.612000465E0,2.092950106E0
2.443251953E0,-3.090000153E-1,9.646050453E0,2.074050188E0
2.444511953E0,-3.000000119E-1,9.619050026E0,2.014050007E0
2.445771953E0,-2.830500007E-1,9.655050278E0,2.064000130E0
2.447031953E0,-2.880000174E-1,9.636000633E0,2.031000137E0
2.448292027E0,-2.400000095E-1,9.639000893E0,2.050050020E0
2.449552048E0,-2.299500108E-1,9.643050194E0,2.086050034E0
2.450812048E0,-2.449500114E-1,9.612000465E0,2.067000151E0
2.452072048E0,-2.500500083E-1,9.628950119E0,2.014050007E0
2.453332048E0,-2.329500169E-1,9.610050201E0,2.056950092E0
2.454592048E0,-2.809500098E-1,9.639000893E0,2.062050104E0
2.455852277E0,-2.860500216E-1,9.640950203E0,2.052000046E0
2.457112279E0,-2.659500241E-1,9.640950203E0,2.042999983E0
2.458372279E0,-2.639999986E-1,9.624000549E0,2.032950163E0
2.459632265E0,-2.520000041E-1,9.639000893E0,2.056950092E0
2.460892265E0,-2.880000174E-1,9.622050285E0,2.040000200E0
2.462152340E0,-2.539499998E-1,9.643050194E0,2.067000151E0
2.463412342E0,-2.500500083E-1,9.658050537E0,2.047950029E0
2.464672342E0,-2.659500241E-1,9.634050369E0,2.032950163E0
2.465932342E0,-2.710500062E-1,9.624000549E0,1.969050050E0
2.467192342E0,-3.019500077E-1,9.658050537E0,2.035950184E0
2.468452342E0,-2.569500208E-1,9.643050194E0,2.064000130E0
2.469712591E0,-2.500500083E-1,9.627000809E0,2.038050175E0
2.470972593E0,-2.779500186E-1,9.643050194E0,2.056950092E0
2.472232593E0,-2.569500208E-1,9.658050537E0,2.078999996E0
2.473492593E0,-2.590500116E-1,9.622050285E0,2.020950079E0
2.474752593E0,-2.659500241E-1,9.640950203E0,2.016000032E0
2.476012668E0,-2.980500162E-1,9.646050453E0,2.111999989E0
2.477272670E0,-2.590500116E-1,9.612000465E0,2.083950043E0
2.478532670E0,-2.860500216E-1,9.627000809E0,2.062050104E0
2.479792684E0,-2.899500132E-1,9.586050034E0,2.040000200E0
2.481052684E0,-2.539499998E-1,9.600000381E0,2.035950184E0
2.482312684E0,-3.019500077E-1,9.646050453E0,2.052000046E0
2.483572913E0,-2.740500271E-1,9.640950203E0,2.050050020E0
2.484832684E0,-2.689500153E-1,9.615000725E0,2.071950197E0
2.486092682E0,-3.120000064E-1,9.640950203E0,2.014050007E0
2.487352913E0,-3.169500232E-1,9.646050453E0,2.031000137E0
2.488612915E0,-3.019500077E-1,9.639000893E0,2.038050175E0
2.489872901E0,-2.470500171E-1,9.648000717E0,2.016000032E0
2.491132976E0,-2.449500114E-1,9.592950821E0,2.011950016E0
2.492392978E0,-2.689500153E-1,9.660000801E0,1.993050098E0
2.493652978E0,-2.830500007E-1,9.667050362E0,2.040000200E0
2.494912978E0,-2.779500186E-1,9.588000298E0,2.047950029E0
2.496172978E0,-2.329500169E-1,9.562050819E0,2.020950079E0
2.497432978E0,-2.590500116E-1,9.610050201E0,2.088000059E0
2.498693206E0,-2.860500216E-1,9.619050026E0,2.064000130E0
2.499953217E0,-3.070500195E-1,9.634050369E0,2.056950092E0
2.501213217E0,-2.899500132E-1,9.660000801E0,2.031000137E0
2.502473217E0,-2.980500162E-1,9.634050369E0,2.083950043E0
2.503733292E0,-2.830500007E-1,9.655050278E0,2.038050175E0
2.504993294E0,-2.419500053E-1,9.660000801E0,2.008949995E0
2.506253217E0,-2.470500171E-1,9.624000549E0,2.064000130E0
2.507513292E0,-2.419500053E-1,9.631050110E0,2.071950197E0
2.508773294E0,-2.880000174E-1,9.636000633E0,2.040000200E0
2.510033308E0,-2.710500062E-1,9.640950203E0,2.011950016E0
2.511293537E0,-2.710500062E-1,9.628950119E0,2.038050175E0
2.512553539E0,-2.779500186E-1,9.595050812E0,2.031000137E0
2.513813308E0,-2.830500007E-1,9.634050369E0,2.056950092E0
2.515073537E0,-2.809500098E-1,9.607050896E0,2.064000130E0
2.516333539E0,-2.950500250E-1,9.663000107E0,2.062050104E0
2.517593539E0,-2.689500153E-1,9.607050896E0,2.028000116E0
2.518853539E0,-2.569500208E-1,9.655050278E0,2.052000046E0
2.520113553E0,-2.760000229E-1,9.627000809E0,2.023950100E0
2.521373628E0,-2.809500098E-1,9.610050201E0,2.062050104E0
2.522633630E0,-2.809500098E-1,9.628950119E0,1.996950150E0
2.523893630E0,-2.569500208E-1,9.652950287E0,2.019000053E0
2.525153630E0,-2.639999986E-1,9.634050369E0,2.052000046E0
2.526413859E0,-2.350500077E-1,9.622050285E0,2.038050175E0
2.527673861E0,-2.760000229E-1,9.616950035E0,2.059950113E0
2.528933861E0,-2.740500271E-1,9.619050026E0,2.098050117E0
2.530193871E0,-2.760000229E-1,9.673950195E0,2.074050188E0
2.531453946E0,-3.070500195E-1,9.646050453E0,2.067000151E0
2.532713948E0,-2.659500241E-1,9.622050285E0,2.035950184E0
2.533973948E0,-2.830500007E-1,9.619050026E0,2.042999983E0
2.535233948E0,-2.689500153E-1,9.603000641E0,2.044950008E0
2.536493948E0,-2.880000174E-1,9.634050369E0,2.068950176E0
2.537753948E0,-2.899500132E-1,9.646050453E0,2.042999983E0
2.539013948E0,-2.929500043E-1,9.639000893E0,1.995000124E0
2.540273948E0,-2.809500098E-1,9.571050644E0,2.011950016E0
2.541534177E0,-2.590500116E-1,9.622050285E0,2.055000067E0
2.542794179E0,-3.190500140E-1,9.580950737E0,2.055000067E0
2.544054179E0,-2.860500216E-1,9.631050110E0,2.052000046E0
2.545314179E0,-3.090000153E-1,9.646050453E0,2.038050175E0
2.546574179E0,-2.809500098E-1,9.648000717E0,2.026050091E0
2.547834179E0,-2.449500114E-1,9.627000809E0,2.035950184E0
2.549094254E0,-3.019500077E-1,9.646050453E0,2.038050175E0
2.550354256E0,-2.689500153E-1,9.622050285E0,2.032950163E0
2.551614256E0,-2.830500007E-1,9.672000885E0,2.007000208E0
2.552874256E0,-2.350500077E-1,9.652950287E0,2.020950079E0
2.554134484E0,-2.980500162E-1,9.631050110E0,2.016000032E0
2.555394486E0,-2.710500062E-1,9.663000107E0,2.038050175E0
2.556654486E0,-2.950500250E-1,9.658050537E0,2.076000214E0
2.557914486E0,-2.740500271E-1,9.691050529E0,2.062050104E0
2.559174486E0,-2.740500271E-1,9.634050369E0,2.047950029E0
2.560434457E0,-2.880000174E-1,9.651000023E0,2.050050020E0
2.561694457E0,-2.830500007E-1,9.663000107E0,2.038050175E0
2.562954532E0,-3.049500287E-1,9.684000015E0,2.044950008E0
2.564214534E0,-2.639999986E-1,9.598050117E0,2.047950029E0
2.565474763E0,-2.500500083E-1,9.640950203E0,2.042999983E0
2.566734534E0,-2.950500250E-1,9.592950821E0,2.047950029E0
2.567994532E0,-2.400000095E-1,9.640950203E0,2.044950008E0
2.569254763E0,-2.470500171E-1,9.663000107E0,2.095950127E0
2.570514752E0,-2.950500250E-1,9.627000809E0,2.059950113E0
2.571774752E0,-2.569500208E-1,9.651000023E0,2.031000137E0
2.573034752E0,-2.639999986E-1,9.622050285E0,2.056950092E0
2.574294752E0,-2.860500216E-1,9.652950287E0,2.064000130E0
2.575554752E0,-2.809500098E-1,9.607050896E0,2.076000214E0
2.576814827E0,-2.689500153E-1,9.652950287E0,2.040000200E0
2.578074829E0,-2.929500043E-1,9.624000549E0,2.062050104E0
2.579334829E0,-3.090000153E-1,9.624000549E0,2.071950197E0
2.580594805E0,-2.860500216E-1,9.622050285E0,1.999950051E0
2.581854805E0,-2.590500116E-1,9.592950821E0,2.016000032E0
2.583115034E0,-2.809500098E-1,9.667050362E0,2.040000200E0
2.584375036E0,-3.120000064E-1,9.631050110E0,2.042999983E0
2.585635036E0,-2.830500007E-1,9.667050362E0,2.023950100E0
2.586895036E0,-2.950500250E-1,9.655050278E0,2.020950079E0
2.588155036E0,-3.120000064E-1,9.622050285E0,2.091000080E0
2.589415036E0,-3.070500195E-1,9.622050285E0,2.086050034E0
2.590675101E0,-2.350500077E-1,9.646050453E0,2.055000067E0
2.591935103E0,-2.860500216E-1,9.616950035E0,2.076000214E0
2.593195103E0,-2.710500062E-1,9.664950371E0,2.078999996E0
2.594455103E0,-2.760000229E-1,9.640950203E0,2.100000143E0
2.595715103E0,-2.740500271E-1,9.664950371E0,2.020950079E0
2.596975332E0,-3.139500022E-1,9.583050728E0,2.014050007E0
2.598235334E0,-3.240000010E-1,9.622050285E0,2.055000067E0
2.599495334E0,-3.289500177E-1,9.646050453E0,2.068950176E0
2.600755344E0,-2.590500116E-1,9.628950119E0,2.005050182E0
2.602015344E0,-2.449500114E-1,9.591000557E0,2.032950163E0
2.603275418E0,-2.980500162E-1,9.640950203E0,2.031000137E0
2.604535420E0,-2.880000174E-1,9.640950203E0,2.047950029E0
2.605795420E0,-2.639999986E-1,9.631050110E0,2.074050188E0
2.607055420E0,-2.659500241E-1,9.651000023E0,2.026050091E0
2.608315420E0,-2.689500153E-1,9.600000381E0,2.071950197E0
2.609575420E0,-3.049500287E-1,9.627000809E0,2.088000059E0
2.610835649E0,-3.169500232E-1,9.652950287E0,2.064000130E0
2.612095651E0,-2.830500007E-1,9.591000557E0,2.044950008E0
2.613355651E0,-2.659500241E-1,9.646050453E0,2.098050117E0
